submission_id,QUD,RT,age,comments,education,endTime,experiment_id,gender,languages,min_chars,optionLeft,optionRight,picture,position,question,response,response_checked,startDate,startTime,timeSpent,top,trial_name,trial_number
705,,6275,21,,Graduated High School,1563127262092,73,female,German,0,NA,NA,Ishihara/29.jpg,NA,Can you see a number ?,29,NA,Sun Jul 14 2019 19:54:32 GMT+0200 (CEST),1563126872684,6.4901333333333335,NA,ishihara,1
705,,21893,21,,Graduated High School,1563127262092,73,female,German,0,NA,NA,Ishihara/6.jpg,absolute,Can you see a number ?,9,NA,Sun Jul 14 2019 19:54:32 GMT+0200 (CEST),1563126872684,6.4901333333333335,20,ishihara,2
705,,4306,21,,Graduated High School,1563127262092,73,female,German,0,NA,NA,Ishihara/8.jpg,NA,Can you see a number ?,8,NA,Sun Jul 14 2019 19:54:32 GMT+0200 (CEST),1563126872684,6.4901333333333335,NA,ishihara,3
705,,4049,21,,Graduated High School,1563127262092,73,female,German,0,NA,NA,Ishihara/18.jpg,NA,Can you see a number ?,18,NA,Sun Jul 14 2019 19:54:32 GMT+0200 (CEST),1563126872684,6.4901333333333335,NA,ishihara,4
705,,4818,21,,Graduated High School,1563127262092,73,female,German,NA,not at all,very,realartsyimages/106.jpg,NA,<br /><br /><br /><br />Rate this picture,7,false,Sun Jul 14 2019 19:54:32 GMT+0200 (CEST),1563126872684,6.4901333333333335,NA,firstblock,1
705,,2193,21,,Graduated High School,1563127262092,73,female,German,NA,not at all,very,realartsyimages/009.jpg,NA,<br /><br /><br /><br />Rate this picture,5,false,Sun Jul 14 2019 19:54:32 GMT+0200 (CEST),1563126872684,6.4901333333333335,NA,firstblock,2
705,,3387,21,,Graduated High School,1563127262092,73,female,German,NA,not at all,very,realartsyimages/002.jpg,NA,<br /><br /><br /><br />Rate this picture,5,false,Sun Jul 14 2019 19:54:32 GMT+0200 (CEST),1563126872684,6.4901333333333335,NA,firstblock,3
705,,3228,21,,Graduated High School,1563127262092,73,female,German,NA,not at all,very,realartsyimages/086.jpg,NA,<br /><br /><br /><br />Rate this picture,6,false,Sun Jul 14 2019 19:54:32 GMT+0200 (CEST),1563126872684,6.4901333333333335,NA,firstblock,4
705,,3130,21,,Graduated High School,1563127262092,73,female,German,NA,not at all,very,realartsyimages/078.jpg,NA,<br /><br /><br /><br />Rate this picture,4,false,Sun Jul 14 2019 19:54:32 GMT+0200 (CEST),1563126872684,6.4901333333333335,NA,firstblock,5
705,,3662,21,,Graduated High School,1563127262092,73,female,German,NA,not at all,very,realartsyimages/047.jpg,NA,<br /><br /><br /><br />Rate this picture,6,false,Sun Jul 14 2019 19:54:32 GMT+0200 (CEST),1563126872684,6.4901333333333335,NA,firstblock,6
705,,1599,21,,Graduated High School,1563127262092,73,female,German,NA,not at all,very,realartsyimages/045.jpg,NA,<br /><br /><br /><br />Rate this picture,7,false,Sun Jul 14 2019 19:54:32 GMT+0200 (CEST),1563126872684,6.4901333333333335,NA,firstblock,7
705,,4770,21,,Graduated High School,1563127262092,73,female,German,NA,not at all,very,realartsyimages/006.jpg,NA,<br /><br /><br /><br />Rate this picture,6,false,Sun Jul 14 2019 19:54:32 GMT+0200 (CEST),1563126872684,6.4901333333333335,NA,firstblock,8
705,,2844,21,,Graduated High School,1563127262092,73,female,German,NA,not at all,very,realartsyimages/083.jpg,NA,<br /><br /><br /><br />Rate this picture,5,false,Sun Jul 14 2019 19:54:32 GMT+0200 (CEST),1563126872684,6.4901333333333335,NA,firstblock,9
705,,3992,21,,Graduated High School,1563127262092,73,female,German,NA,not at all,very,realartsyimages/015.jpg,NA,<br /><br /><br /><br />Rate this picture,3,false,Sun Jul 14 2019 19:54:32 GMT+0200 (CEST),1563126872684,6.4901333333333335,NA,firstblock,10
705,,1682,21,,Graduated High School,1563127262092,73,female,German,NA,not at all,very,realartsyimages/103.jpg,NA,<br /><br /><br /><br />Rate this picture,7,false,Sun Jul 14 2019 19:54:32 GMT+0200 (CEST),1563126872684,6.4901333333333335,NA,firstblock,11
705,,1962,21,,Graduated High School,1563127262092,73,female,German,NA,not at all,very,realartsyimages/072.jpg,NA,<br /><br /><br /><br />Rate this picture,7,false,Sun Jul 14 2019 19:54:32 GMT+0200 (CEST),1563126872684,6.4901333333333335,NA,firstblock,12
705,,1846,21,,Graduated High School,1563127262092,73,female,German,NA,not at all,very,realartsyimages/036.jpg,NA,<br /><br /><br /><br />Rate this picture,5,false,Sun Jul 14 2019 19:54:32 GMT+0200 (CEST),1563126872684,6.4901333333333335,NA,firstblock,13
705,,6063,21,,Graduated High School,1563127262092,73,female,German,NA,not at all,very,realartsyimages/014.jpg,NA,<br /><br /><br /><br />Rate this picture,4,false,Sun Jul 14 2019 19:54:32 GMT+0200 (CEST),1563126872684,6.4901333333333335,NA,firstblock,14
705,,2334,21,,Graduated High School,1563127262092,73,female,German,NA,not at all,very,realartsyimages/102.jpg,NA,<br /><br /><br /><br />Rate this picture,6,false,Sun Jul 14 2019 19:54:32 GMT+0200 (CEST),1563126872684,6.4901333333333335,NA,firstblock,15
705,,2205,21,,Graduated High School,1563127262092,73,female,German,NA,not at all,very,realartsyimages/005.jpg,NA,<br /><br /><br /><br />Rate this picture,3,false,Sun Jul 14 2019 19:54:32 GMT+0200 (CEST),1563126872684,6.4901333333333335,NA,firstblock,16
705,,2558,21,,Graduated High School,1563127262092,73,female,German,NA,not at all,very,realartsyimages/095.jpg,NA,<br /><br /><br /><br />Rate this picture,4,false,Sun Jul 14 2019 19:54:32 GMT+0200 (CEST),1563126872684,6.4901333333333335,NA,firstblock,17
705,,3126,21,,Graduated High School,1563127262092,73,female,German,NA,not at all,very,realartsyimages/046.jpg,NA,<br /><br /><br /><br />Rate this picture,4,false,Sun Jul 14 2019 19:54:32 GMT+0200 (CEST),1563126872684,6.4901333333333335,NA,firstblock,18
705,,1802,21,,Graduated High School,1563127262092,73,female,German,NA,not at all,very,realartsyimages/042.jpg,NA,<br /><br /><br /><br />Rate this picture,4,false,Sun Jul 14 2019 19:54:32 GMT+0200 (CEST),1563126872684,6.4901333333333335,NA,firstblock,19
705,,2526,21,,Graduated High School,1563127262092,73,female,German,NA,not at all,very,realartsyimages/013.jpg,NA,<br /><br /><br /><br />Rate this picture,4,false,Sun Jul 14 2019 19:54:32 GMT+0200 (CEST),1563126872684,6.4901333333333335,NA,firstblock,20
705,,2513,21,,Graduated High School,1563127262092,73,female,German,NA,not at all,very,realartsyimages/081.jpg,NA,<br /><br /><br /><br />Rate this picture,4,false,Sun Jul 14 2019 19:54:32 GMT+0200 (CEST),1563126872684,6.4901333333333335,NA,firstblock,21
705,,1864,21,,Graduated High School,1563127262092,73,female,German,NA,not at all,very,realartsyimages/008.jpg,NA,<br /><br /><br /><br />Rate this picture,4,false,Sun Jul 14 2019 19:54:32 GMT+0200 (CEST),1563126872684,6.4901333333333335,NA,firstblock,22
705,,1349,21,,Graduated High School,1563127262092,73,female,German,NA,not at all,very,realartsyimages/075.jpg,NA,<br /><br /><br /><br />Rate this picture,7,false,Sun Jul 14 2019 19:54:32 GMT+0200 (CEST),1563126872684,6.4901333333333335,NA,firstblock,23
705,,6900,21,,Graduated High School,1563127262092,73,female,German,NA,not at all,very,realartsyimages/041.jpg,NA,<br /><br /><br /><br />Rate this picture,5,false,Sun Jul 14 2019 19:54:32 GMT+0200 (CEST),1563126872684,6.4901333333333335,NA,firstblock,24
705,,2554,21,,Graduated High School,1563127262092,73,female,German,NA,not at all,very,realartsyimages/074.jpg,NA,<br /><br /><br /><br />Rate this picture,5,false,Sun Jul 14 2019 19:54:32 GMT+0200 (CEST),1563126872684,6.4901333333333335,NA,firstblock,25
705,,5945,21,,Graduated High School,1563127262092,73,female,German,NA,not at all,very,realartsyimages/101.jpg,NA,<br /><br /><br /><br />Rate this picture,5,false,Sun Jul 14 2019 19:54:32 GMT+0200 (CEST),1563126872684,6.4901333333333335,NA,firstblock,26
705,,1821,21,,Graduated High School,1563127262092,73,female,German,NA,not at all,very,realartsyimages/098.jpg,NA,<br /><br /><br /><br />Rate this picture,4,false,Sun Jul 14 2019 19:54:32 GMT+0200 (CEST),1563126872684,6.4901333333333335,NA,firstblock,27
705,,2230,21,,Graduated High School,1563127262092,73,female,German,NA,not at all,very,realartsyimages/076.jpg,NA,<br /><br /><br /><br />Rate this picture,5,false,Sun Jul 14 2019 19:54:32 GMT+0200 (CEST),1563126872684,6.4901333333333335,NA,firstblock,28
705,,3402,21,,Graduated High School,1563127262092,73,female,German,NA,not at all,very,realartsyimages/001.jpg,NA,<br /><br /><br /><br />Rate this picture,4,false,Sun Jul 14 2019 19:54:32 GMT+0200 (CEST),1563126872684,6.4901333333333335,NA,firstblock,29
705,,2080,21,,Graduated High School,1563127262092,73,female,German,NA,not at all,very,realartsyimages/073.jpg,NA,<br /><br /><br /><br />Rate this picture,6,false,Sun Jul 14 2019 19:54:32 GMT+0200 (CEST),1563126872684,6.4901333333333335,NA,firstblock,30
705,,1644,21,,Graduated High School,1563127262092,73,female,German,NA,not at all,very,realartsyimages/003.jpg,NA,<br /><br /><br /><br />Rate this picture,5,false,Sun Jul 14 2019 19:54:32 GMT+0200 (CEST),1563126872684,6.4901333333333335,NA,firstblock,31
705,,2506,21,,Graduated High School,1563127262092,73,female,German,NA,not at all,very,realartsyimages/038.jpg,NA,<br /><br /><br /><br />Rate this picture,5,false,Sun Jul 14 2019 19:54:32 GMT+0200 (CEST),1563126872684,6.4901333333333335,NA,firstblock,32
705,,1454,21,,Graduated High School,1563127262092,73,female,German,NA,not at all,very,realartsyimages/093.jpg,NA,<br /><br /><br /><br />Rate this picture,6,false,Sun Jul 14 2019 19:54:32 GMT+0200 (CEST),1563126872684,6.4901333333333335,NA,firstblock,33
705,,8385,21,,Graduated High School,1563127262092,73,female,German,NA,not at all,very,realartsyimages/010.jpg,NA,<br /><br /><br /><br />Rate this picture,4,false,Sun Jul 14 2019 19:54:32 GMT+0200 (CEST),1563126872684,6.4901333333333335,NA,firstblock,34
705,,1876,21,,Graduated High School,1563127262092,73,female,German,NA,not at all,very,realartsyimages/043.jpg,NA,<br /><br /><br /><br />Rate this picture,5,false,Sun Jul 14 2019 19:54:32 GMT+0200 (CEST),1563126872684,6.4901333333333335,NA,firstblock,35
705,,1720,21,,Graduated High School,1563127262092,73,female,German,NA,not at all,very,realartsyimages/082.jpg,NA,<br /><br /><br /><br />Rate this picture,7,false,Sun Jul 14 2019 19:54:32 GMT+0200 (CEST),1563126872684,6.4901333333333335,NA,firstblock,36
705,,1825,21,,Graduated High School,1563127262092,73,female,German,NA,not at all,very,realartsyimages/004.jpg,NA,<br /><br /><br /><br />Rate this picture,4,false,Sun Jul 14 2019 19:54:32 GMT+0200 (CEST),1563126872684,6.4901333333333335,NA,firstblock,37
705,,1346,21,,Graduated High School,1563127262092,73,female,German,NA,not at all,very,realartsyimages/039.jpg,NA,<br /><br /><br /><br />Rate this picture,6,false,Sun Jul 14 2019 19:54:32 GMT+0200 (CEST),1563126872684,6.4901333333333335,NA,firstblock,38
705,,1164,21,,Graduated High School,1563127262092,73,female,German,NA,not at all,very,realartsyimages/092.jpg,NA,<br /><br /><br /><br />Rate this picture,7,false,Sun Jul 14 2019 19:54:32 GMT+0200 (CEST),1563126872684,6.4901333333333335,NA,firstblock,39
705,,9248,21,,Graduated High School,1563127262092,73,female,German,NA,not at all,very,realartsyimages/011.jpg,NA,<br /><br /><br /><br />Rate this picture,4,false,Sun Jul 14 2019 19:54:32 GMT+0200 (CEST),1563126872684,6.4901333333333335,NA,firstblock,40
705,,1815,21,,Graduated High School,1563127262092,73,female,German,NA,not at all,very,realartsyimages/048.jpg,NA,<br /><br /><br /><br />Rate this picture,4,false,Sun Jul 14 2019 19:54:32 GMT+0200 (CEST),1563126872684,6.4901333333333335,NA,firstblock,41
705,,1594,21,,Graduated High School,1563127262092,73,female,German,NA,not at all,very,realartsyimages/037.jpg,NA,<br /><br /><br /><br />Rate this picture,4,false,Sun Jul 14 2019 19:54:32 GMT+0200 (CEST),1563126872684,6.4901333333333335,NA,firstblock,42
705,,1899,21,,Graduated High School,1563127262092,73,female,German,NA,not at all,very,realartsyimages/080.jpg,NA,<br /><br /><br /><br />Rate this picture,6,false,Sun Jul 14 2019 19:54:32 GMT+0200 (CEST),1563126872684,6.4901333333333335,NA,firstblock,43
705,,1665,21,,Graduated High School,1563127262092,73,female,German,NA,not at all,very,realartsyimages/097.jpg,NA,<br /><br /><br /><br />Rate this picture,7,false,Sun Jul 14 2019 19:54:32 GMT+0200 (CEST),1563126872684,6.4901333333333335,NA,firstblock,44
705,,1341,21,,Graduated High School,1563127262092,73,female,German,NA,not at all,very,realartsyimages/079.jpg,NA,<br /><br /><br /><br />Rate this picture,7,false,Sun Jul 14 2019 19:54:32 GMT+0200 (CEST),1563126872684,6.4901333333333335,NA,firstblock,45
705,,1368,21,,Graduated High School,1563127262092,73,female,German,NA,not at all,very,realartsyimages/096.jpg,NA,<br /><br /><br /><br />Rate this picture,7,false,Sun Jul 14 2019 19:54:32 GMT+0200 (CEST),1563126872684,6.4901333333333335,NA,firstblock,46
705,,1561,21,,Graduated High School,1563127262092,73,female,German,NA,not at all,very,realartsyimages/084.jpg,NA,<br /><br /><br /><br />Rate this picture,7,false,Sun Jul 14 2019 19:54:32 GMT+0200 (CEST),1563126872684,6.4901333333333335,NA,firstblock,47
705,,4064,21,,Graduated High School,1563127262092,73,female,German,NA,not at all,very,realartsyimages/099.jpg,NA,<br /><br /><br /><br />Rate this picture,5,false,Sun Jul 14 2019 19:54:32 GMT+0200 (CEST),1563126872684,6.4901333333333335,NA,firstblock,48
705,,1812,21,,Graduated High School,1563127262092,73,female,German,NA,not at all,very,realartsyimages/012.jpg,NA,<br /><br /><br /><br />Rate this picture,5,false,Sun Jul 14 2019 19:54:32 GMT+0200 (CEST),1563126872684,6.4901333333333335,NA,firstblock,49
705,,3327,21,,Graduated High School,1563127262092,73,female,German,NA,not at all,very,realartsyimages/105.jpg,NA,<br /><br /><br /><br />Rate this picture,5,false,Sun Jul 14 2019 19:54:32 GMT+0200 (CEST),1563126872684,6.4901333333333335,NA,firstblock,50
705,,1314,21,,Graduated High School,1563127262092,73,female,German,NA,not at all,very,realartsyimages/050.jpg,NA,<br /><br /><br /><br />Rate this picture,5,false,Sun Jul 14 2019 19:54:32 GMT+0200 (CEST),1563126872684,6.4901333333333335,NA,firstblock,51
705,,1601,21,,Graduated High School,1563127262092,73,female,German,NA,not at all,very,realartsyimages/077.jpg,NA,<br /><br /><br /><br />Rate this picture,6,false,Sun Jul 14 2019 19:54:32 GMT+0200 (CEST),1563126872684,6.4901333333333335,NA,firstblock,52
705,,1595,21,,Graduated High School,1563127262092,73,female,German,NA,not at all,very,realartsyimages/007.jpg,NA,<br /><br /><br /><br />Rate this picture,4,false,Sun Jul 14 2019 19:54:32 GMT+0200 (CEST),1563126872684,6.4901333333333335,NA,firstblock,53
705,,2034,21,,Graduated High School,1563127262092,73,female,German,NA,not at all,very,realartsyimages/100.jpg,NA,<br /><br /><br /><br />Rate this picture,4,false,Sun Jul 14 2019 19:54:32 GMT+0200 (CEST),1563126872684,6.4901333333333335,NA,firstblock,54
705,,1521,21,,Graduated High School,1563127262092,73,female,German,NA,not at all,very,realartsyimages/087.jpg,NA,<br /><br /><br /><br />Rate this picture,5,false,Sun Jul 14 2019 19:54:32 GMT+0200 (CEST),1563126872684,6.4901333333333335,NA,firstblock,55
705,,1733,21,,Graduated High School,1563127262092,73,female,German,NA,not at all,very,realartsyimages/044.jpg,NA,<br /><br /><br /><br />Rate this picture,4,false,Sun Jul 14 2019 19:54:32 GMT+0200 (CEST),1563126872684,6.4901333333333335,NA,firstblock,56
705,,1456,21,,Graduated High School,1563127262092,73,female,German,NA,not at all,very,realartsyimages/049.jpg,NA,<br /><br /><br /><br />Rate this picture,3,false,Sun Jul 14 2019 19:54:32 GMT+0200 (CEST),1563126872684,6.4901333333333335,NA,firstblock,57
705,,1877,21,,Graduated High School,1563127262092,73,female,German,NA,not at all,very,realartsyimages/094.jpg,NA,<br /><br /><br /><br />Rate this picture,3,false,Sun Jul 14 2019 19:54:32 GMT+0200 (CEST),1563126872684,6.4901333333333335,NA,firstblock,58
705,,1327,21,,Graduated High School,1563127262092,73,female,German,NA,not at all,very,realartsyimages/040.jpg,NA,<br /><br /><br /><br />Rate this picture,3,false,Sun Jul 14 2019 19:54:32 GMT+0200 (CEST),1563126872684,6.4901333333333335,NA,firstblock,59
705,,1359,21,,Graduated High School,1563127262092,73,female,German,NA,not at all,very,realartsyimages/085.jpg,NA,<br /><br /><br /><br />Rate this picture,5,false,Sun Jul 14 2019 19:54:32 GMT+0200 (CEST),1563126872684,6.4901333333333335,NA,firstblock,60
705,,31367,21,,Graduated High School,1563127262092,73,female,German,NA,not at all,very,realartsyimages/084.jpg,NA,<br /><br /><br /><br />Rate this picture,3,false,Sun Jul 14 2019 19:54:32 GMT+0200 (CEST),1563126872684,6.4901333333333335,NA,secondblock,1
705,,2143,21,,Graduated High School,1563127262092,73,female,German,NA,not at all,very,realartsyimages/005.jpg,NA,<br /><br /><br /><br />Rate this picture,2,false,Sun Jul 14 2019 19:54:32 GMT+0200 (CEST),1563126872684,6.4901333333333335,NA,secondblock,2
705,,1453,21,,Graduated High School,1563127262092,73,female,German,NA,not at all,very,realartsyimages/046.jpg,NA,<br /><br /><br /><br />Rate this picture,1,false,Sun Jul 14 2019 19:54:32 GMT+0200 (CEST),1563126872684,6.4901333333333335,NA,secondblock,3
705,,1270,21,,Graduated High School,1563127262092,73,female,German,NA,not at all,very,realartsyimages/004.jpg,NA,<br /><br /><br /><br />Rate this picture,1,false,Sun Jul 14 2019 19:54:32 GMT+0200 (CEST),1563126872684,6.4901333333333335,NA,secondblock,4
705,,1948,21,,Graduated High School,1563127262092,73,female,German,NA,not at all,very,realartsyimages/098.jpg,NA,<br /><br /><br /><br />Rate this picture,1,false,Sun Jul 14 2019 19:54:32 GMT+0200 (CEST),1563126872684,6.4901333333333335,NA,secondblock,5
705,,3257,21,,Graduated High School,1563127262092,73,female,German,NA,not at all,very,realartsyimages/106.jpg,NA,<br /><br /><br /><br />Rate this picture,3,false,Sun Jul 14 2019 19:54:32 GMT+0200 (CEST),1563126872684,6.4901333333333335,NA,secondblock,6
705,,1526,21,,Graduated High School,1563127262092,73,female,German,NA,not at all,very,realartsyimages/092.jpg,NA,<br /><br /><br /><br />Rate this picture,4,false,Sun Jul 14 2019 19:54:32 GMT+0200 (CEST),1563126872684,6.4901333333333335,NA,secondblock,7
705,,2358,21,,Graduated High School,1563127262092,73,female,German,NA,not at all,very,realartsyimages/102.jpg,NA,<br /><br /><br /><br />Rate this picture,5,false,Sun Jul 14 2019 19:54:32 GMT+0200 (CEST),1563126872684,6.4901333333333335,NA,secondblock,8
705,,2248,21,,Graduated High School,1563127262092,73,female,German,NA,not at all,very,realartsyimages/013.jpg,NA,<br /><br /><br /><br />Rate this picture,2,false,Sun Jul 14 2019 19:54:32 GMT+0200 (CEST),1563126872684,6.4901333333333335,NA,secondblock,9
705,,1729,21,,Graduated High School,1563127262092,73,female,German,NA,not at all,very,realartsyimages/072.jpg,NA,<br /><br /><br /><br />Rate this picture,5,false,Sun Jul 14 2019 19:54:32 GMT+0200 (CEST),1563126872684,6.4901333333333335,NA,secondblock,10
705,,1940,21,,Graduated High School,1563127262092,73,female,German,NA,not at all,very,realartsyimages/093.jpg,NA,<br /><br /><br /><br />Rate this picture,5,false,Sun Jul 14 2019 19:54:32 GMT+0200 (CEST),1563126872684,6.4901333333333335,NA,secondblock,11
705,,2086,21,,Graduated High School,1563127262092,73,female,German,NA,not at all,very,realartsyimages/049.jpg,NA,<br /><br /><br /><br />Rate this picture,2,false,Sun Jul 14 2019 19:54:32 GMT+0200 (CEST),1563126872684,6.4901333333333335,NA,secondblock,12
705,,1746,21,,Graduated High School,1563127262092,73,female,German,NA,not at all,very,realartsyimages/095.jpg,NA,<br /><br /><br /><br />Rate this picture,1,false,Sun Jul 14 2019 19:54:32 GMT+0200 (CEST),1563126872684,6.4901333333333335,NA,secondblock,13
705,,2147,21,,Graduated High School,1563127262092,73,female,German,NA,not at all,very,realartsyimages/101.jpg,NA,<br /><br /><br /><br />Rate this picture,1,false,Sun Jul 14 2019 19:54:32 GMT+0200 (CEST),1563126872684,6.4901333333333335,NA,secondblock,14
705,,1798,21,,Graduated High School,1563127262092,73,female,German,NA,not at all,very,realartsyimages/038.jpg,NA,<br /><br /><br /><br />Rate this picture,1,false,Sun Jul 14 2019 19:54:32 GMT+0200 (CEST),1563126872684,6.4901333333333335,NA,secondblock,15
705,,2491,21,,Graduated High School,1563127262092,73,female,German,NA,not at all,very,realartsyimages/099.jpg,NA,<br /><br /><br /><br />Rate this picture,6,false,Sun Jul 14 2019 19:54:32 GMT+0200 (CEST),1563126872684,6.4901333333333335,NA,secondblock,16
705,,5629,21,,Graduated High School,1563127262092,73,female,German,NA,not at all,very,realartsyimages/079.jpg,NA,<br /><br /><br /><br />Rate this picture,5,false,Sun Jul 14 2019 19:54:32 GMT+0200 (CEST),1563126872684,6.4901333333333335,NA,secondblock,17
705,,1785,21,,Graduated High School,1563127262092,73,female,German,NA,not at all,very,realartsyimages/083.jpg,NA,<br /><br /><br /><br />Rate this picture,5,false,Sun Jul 14 2019 19:54:32 GMT+0200 (CEST),1563126872684,6.4901333333333335,NA,secondblock,18
705,,1104,21,,Graduated High School,1563127262092,73,female,German,NA,not at all,very,realartsyimages/086.jpg,NA,<br /><br /><br /><br />Rate this picture,5,false,Sun Jul 14 2019 19:54:32 GMT+0200 (CEST),1563126872684,6.4901333333333335,NA,secondblock,19
705,,1460,21,,Graduated High School,1563127262092,73,female,German,NA,not at all,very,realartsyimages/040.jpg,NA,<br /><br /><br /><br />Rate this picture,1,false,Sun Jul 14 2019 19:54:32 GMT+0200 (CEST),1563126872684,6.4901333333333335,NA,secondblock,20
705,,1744,21,,Graduated High School,1563127262092,73,female,German,NA,not at all,very,realartsyimages/085.jpg,NA,<br /><br /><br /><br />Rate this picture,1,false,Sun Jul 14 2019 19:54:32 GMT+0200 (CEST),1563126872684,6.4901333333333335,NA,secondblock,21
705,,2369,21,,Graduated High School,1563127262092,73,female,German,NA,not at all,very,realartsyimages/041.jpg,NA,<br /><br /><br /><br />Rate this picture,5,false,Sun Jul 14 2019 19:54:32 GMT+0200 (CEST),1563126872684,6.4901333333333335,NA,secondblock,22
705,,1292,21,,Graduated High School,1563127262092,73,female,German,NA,not at all,very,realartsyimages/100.jpg,NA,<br /><br /><br /><br />Rate this picture,5,false,Sun Jul 14 2019 19:54:32 GMT+0200 (CEST),1563126872684,6.4901333333333335,NA,secondblock,23
705,,1976,21,,Graduated High School,1563127262092,73,female,German,NA,not at all,very,realartsyimages/012.jpg,NA,<br /><br /><br /><br />Rate this picture,2,false,Sun Jul 14 2019 19:54:32 GMT+0200 (CEST),1563126872684,6.4901333333333335,NA,secondblock,24
705,,8124,21,,Graduated High School,1563127262092,73,female,German,NA,not at all,very,realartsyimages/048.jpg,NA,<br /><br /><br /><br />Rate this picture,2,false,Sun Jul 14 2019 19:54:32 GMT+0200 (CEST),1563126872684,6.4901333333333335,NA,secondblock,25
705,,1192,21,,Graduated High School,1563127262092,73,female,German,NA,not at all,very,realartsyimages/009.jpg,NA,<br /><br /><br /><br />Rate this picture,2,false,Sun Jul 14 2019 19:54:32 GMT+0200 (CEST),1563126872684,6.4901333333333335,NA,secondblock,26
705,,2019,21,,Graduated High School,1563127262092,73,female,German,NA,not at all,very,realartsyimages/082.jpg,NA,<br /><br /><br /><br />Rate this picture,1,false,Sun Jul 14 2019 19:54:32 GMT+0200 (CEST),1563126872684,6.4901333333333335,NA,secondblock,27
705,,1725,21,,Graduated High School,1563127262092,73,female,German,NA,not at all,very,realartsyimages/002.jpg,NA,<br /><br /><br /><br />Rate this picture,2,false,Sun Jul 14 2019 19:54:32 GMT+0200 (CEST),1563126872684,6.4901333333333335,NA,secondblock,28
705,,998,21,,Graduated High School,1563127262092,73,female,German,NA,not at all,very,realartsyimages/036.jpg,NA,<br /><br /><br /><br />Rate this picture,2,false,Sun Jul 14 2019 19:54:32 GMT+0200 (CEST),1563126872684,6.4901333333333335,NA,secondblock,29
705,,1337,21,,Graduated High School,1563127262092,73,female,German,NA,not at all,very,realartsyimages/087.jpg,NA,<br /><br /><br /><br />Rate this picture,5,false,Sun Jul 14 2019 19:54:32 GMT+0200 (CEST),1563126872684,6.4901333333333335,NA,secondblock,30
705,,3850,21,,Graduated High School,1563127262092,73,female,German,NA,not at all,very,realartsyimages/047.jpg,NA,<br /><br /><br /><br />Rate this picture,1,false,Sun Jul 14 2019 19:54:32 GMT+0200 (CEST),1563126872684,6.4901333333333335,NA,secondblock,31
705,,1895,21,,Graduated High School,1563127262092,73,female,German,NA,not at all,very,realartsyimages/008.jpg,NA,<br /><br /><br /><br />Rate this picture,2,false,Sun Jul 14 2019 19:54:32 GMT+0200 (CEST),1563126872684,6.4901333333333335,NA,secondblock,32
705,,1008,21,,Graduated High School,1563127262092,73,female,German,NA,not at all,very,realartsyimages/011.jpg,NA,<br /><br /><br /><br />Rate this picture,2,false,Sun Jul 14 2019 19:54:32 GMT+0200 (CEST),1563126872684,6.4901333333333335,NA,secondblock,33
705,,742,21,,Graduated High School,1563127262092,73,female,German,NA,not at all,very,realartsyimages/050.jpg,NA,<br /><br /><br /><br />Rate this picture,2,false,Sun Jul 14 2019 19:54:32 GMT+0200 (CEST),1563126872684,6.4901333333333335,NA,secondblock,34
705,,734,21,,Graduated High School,1563127262092,73,female,German,NA,not at all,very,realartsyimages/010.jpg,NA,<br /><br /><br /><br />Rate this picture,2,false,Sun Jul 14 2019 19:54:32 GMT+0200 (CEST),1563126872684,6.4901333333333335,NA,secondblock,35
705,,2597,21,,Graduated High School,1563127262092,73,female,German,NA,not at all,very,realartsyimages/096.jpg,NA,<br /><br /><br /><br />Rate this picture,4,false,Sun Jul 14 2019 19:54:32 GMT+0200 (CEST),1563126872684,6.4901333333333335,NA,secondblock,36
705,,1481,21,,Graduated High School,1563127262092,73,female,German,NA,not at all,very,realartsyimages/075.jpg,NA,<br /><br /><br /><br />Rate this picture,6,false,Sun Jul 14 2019 19:54:32 GMT+0200 (CEST),1563126872684,6.4901333333333335,NA,secondblock,37
705,,5325,21,,Graduated High School,1563127262092,73,female,German,NA,not at all,very,realartsyimages/014.jpg,NA,<br /><br /><br /><br />Rate this picture,2,false,Sun Jul 14 2019 19:54:32 GMT+0200 (CEST),1563126872684,6.4901333333333335,NA,secondblock,38
705,,831,21,,Graduated High School,1563127262092,73,female,German,NA,not at all,very,realartsyimages/003.jpg,NA,<br /><br /><br /><br />Rate this picture,2,false,Sun Jul 14 2019 19:54:32 GMT+0200 (CEST),1563126872684,6.4901333333333335,NA,secondblock,39
705,,1946,21,,Graduated High School,1563127262092,73,female,German,NA,not at all,very,realartsyimages/104.jpg,NA,<br /><br /><br /><br />Rate this picture,4,false,Sun Jul 14 2019 19:54:32 GMT+0200 (CEST),1563126872684,6.4901333333333335,NA,secondblock,40
705,,1691,21,,Graduated High School,1563127262092,73,female,German,NA,not at all,very,realartsyimages/001.jpg,NA,<br /><br /><br /><br />Rate this picture,3,false,Sun Jul 14 2019 19:54:32 GMT+0200 (CEST),1563126872684,6.4901333333333335,NA,secondblock,41
705,,1431,21,,Graduated High School,1563127262092,73,female,German,NA,not at all,very,realartsyimages/006.jpg,NA,<br /><br /><br /><br />Rate this picture,1,false,Sun Jul 14 2019 19:54:32 GMT+0200 (CEST),1563126872684,6.4901333333333335,NA,secondblock,42
705,,1309,21,,Graduated High School,1563127262092,73,female,German,NA,not at all,very,realartsyimages/094.jpg,NA,<br /><br /><br /><br />Rate this picture,2,false,Sun Jul 14 2019 19:54:32 GMT+0200 (CEST),1563126872684,6.4901333333333335,NA,secondblock,43
705,,5671,21,,Graduated High School,1563127262092,73,female,German,NA,not at all,very,realartsyimages/080.jpg,NA,<br /><br /><br /><br />Rate this picture,5,false,Sun Jul 14 2019 19:54:32 GMT+0200 (CEST),1563126872684,6.4901333333333335,NA,secondblock,44
705,,1472,21,,Graduated High School,1563127262092,73,female,German,NA,not at all,very,realartsyimages/045.jpg,NA,<br /><br /><br /><br />Rate this picture,2,false,Sun Jul 14 2019 19:54:32 GMT+0200 (CEST),1563126872684,6.4901333333333335,NA,secondblock,45
705,,2130,21,,Graduated High School,1563127262092,73,female,German,NA,not at all,very,realartsyimages/081.jpg,NA,<br /><br /><br /><br />Rate this picture,5,false,Sun Jul 14 2019 19:54:32 GMT+0200 (CEST),1563126872684,6.4901333333333335,NA,secondblock,46
705,,4660,21,,Graduated High School,1563127262092,73,female,German,NA,not at all,very,realartsyimages/074.jpg,NA,<br /><br /><br /><br />Rate this picture,5,false,Sun Jul 14 2019 19:54:32 GMT+0200 (CEST),1563126872684,6.4901333333333335,NA,secondblock,47
705,,1202,21,,Graduated High School,1563127262092,73,female,German,NA,not at all,very,realartsyimages/076.jpg,NA,<br /><br /><br /><br />Rate this picture,5,false,Sun Jul 14 2019 19:54:32 GMT+0200 (CEST),1563126872684,6.4901333333333335,NA,secondblock,48
705,,1696,21,,Graduated High School,1563127262092,73,female,German,NA,not at all,very,realartsyimages/073.jpg,NA,<br /><br /><br /><br />Rate this picture,4,false,Sun Jul 14 2019 19:54:32 GMT+0200 (CEST),1563126872684,6.4901333333333335,NA,secondblock,49
705,,2143,21,,Graduated High School,1563127262092,73,female,German,NA,not at all,very,realartsyimages/007.jpg,NA,<br /><br /><br /><br />Rate this picture,3,false,Sun Jul 14 2019 19:54:32 GMT+0200 (CEST),1563126872684,6.4901333333333335,NA,secondblock,50
705,,1959,21,,Graduated High School,1563127262092,73,female,German,NA,not at all,very,realartsyimages/105.jpg,NA,<br /><br /><br /><br />Rate this picture,3,false,Sun Jul 14 2019 19:54:32 GMT+0200 (CEST),1563126872684,6.4901333333333335,NA,secondblock,51
705,,2538,21,,Graduated High School,1563127262092,73,female,German,NA,not at all,very,realartsyimages/043.jpg,NA,<br /><br /><br /><br />Rate this picture,2,false,Sun Jul 14 2019 19:54:32 GMT+0200 (CEST),1563126872684,6.4901333333333335,NA,secondblock,52
705,,1329,21,,Graduated High School,1563127262092,73,female,German,NA,not at all,very,realartsyimages/044.jpg,NA,<br /><br /><br /><br />Rate this picture,2,false,Sun Jul 14 2019 19:54:32 GMT+0200 (CEST),1563126872684,6.4901333333333335,NA,secondblock,53
705,,1002,21,,Graduated High School,1563127262092,73,female,German,NA,not at all,very,realartsyimages/042.jpg,NA,<br /><br /><br /><br />Rate this picture,2,false,Sun Jul 14 2019 19:54:32 GMT+0200 (CEST),1563126872684,6.4901333333333335,NA,secondblock,54
705,,588,21,,Graduated High School,1563127262092,73,female,German,NA,not at all,very,realartsyimages/103.jpg,NA,<br /><br /><br /><br />Rate this picture,1,false,Sun Jul 14 2019 19:54:32 GMT+0200 (CEST),1563126872684,6.4901333333333335,NA,secondblock,55
705,,1439,21,,Graduated High School,1563127262092,73,female,German,NA,not at all,very,realartsyimages/039.jpg,NA,<br /><br /><br /><br />Rate this picture,1,false,Sun Jul 14 2019 19:54:32 GMT+0200 (CEST),1563126872684,6.4901333333333335,NA,secondblock,56
705,,1376,21,,Graduated High School,1563127262092,73,female,German,NA,not at all,very,realartsyimages/097.jpg,NA,<br /><br /><br /><br />Rate this picture,4,false,Sun Jul 14 2019 19:54:32 GMT+0200 (CEST),1563126872684,6.4901333333333335,NA,secondblock,57
705,,3353,21,,Graduated High School,1563127262092,73,female,German,NA,not at all,very,realartsyimages/015.jpg,NA,<br /><br /><br /><br />Rate this picture,3,false,Sun Jul 14 2019 19:54:32 GMT+0200 (CEST),1563126872684,6.4901333333333335,NA,secondblock,58
705,,1845,21,,Graduated High School,1563127262092,73,female,German,NA,not at all,very,realartsyimages/037.jpg,NA,<br /><br /><br /><br />Rate this picture,2,false,Sun Jul 14 2019 19:54:32 GMT+0200 (CEST),1563126872684,6.4901333333333335,NA,secondblock,59
705,,2118,21,,Graduated High School,1563127262092,73,female,German,NA,not at all,very,realartsyimages/078.jpg,NA,<br /><br /><br /><br />Rate this picture,5,false,Sun Jul 14 2019 19:54:32 GMT+0200 (CEST),1563126872684,6.4901333333333335,NA,secondblock,60
707,,9208,20,:*,Graduated High School,1563127617268,73,male,German,0,NA,NA,Ishihara/29.jpg,NA,Can you see a number ?,Yeah,NA,Sun Jul 14 2019 20:01:04 GMT+0200 (Mitteleuropäische Sommerzeit),1563127264568,5.878333333333333,NA,ishihara,1
707,,6885,20,:*,Graduated High School,1563127617268,73,male,German,0,NA,NA,Ishihara/6.jpg,absolute,Can you see a number ?,Yeah,NA,Sun Jul 14 2019 20:01:04 GMT+0200 (Mitteleuropäische Sommerzeit),1563127264568,5.878333333333333,20,ishihara,2
707,,4285,20,:*,Graduated High School,1563127617268,73,male,German,0,NA,NA,Ishihara/18.jpg,NA,Can you see a number ?,Yeah,NA,Sun Jul 14 2019 20:01:04 GMT+0200 (Mitteleuropäische Sommerzeit),1563127264568,5.878333333333333,NA,ishihara,3
707,,4541,20,:*,Graduated High School,1563127617268,73,male,German,0,NA,NA,Ishihara/8.jpg,NA,Can you see a number ?,Yeah,NA,Sun Jul 14 2019 20:01:04 GMT+0200 (Mitteleuropäische Sommerzeit),1563127264568,5.878333333333333,NA,ishihara,4
707,,5819,20,:*,Graduated High School,1563127617268,73,male,German,NA,not at all,very,realartsyimages/078.jpg,NA,<br /><br /><br /><br />Rate this picture,4,false,Sun Jul 14 2019 20:01:04 GMT+0200 (Mitteleuropäische Sommerzeit),1563127264568,5.878333333333333,NA,firstblock,1
707,,2595,20,:*,Graduated High School,1563127617268,73,male,German,NA,not at all,very,realartsyimages/038.jpg,NA,<br /><br /><br /><br />Rate this picture,7,false,Sun Jul 14 2019 20:01:04 GMT+0200 (Mitteleuropäische Sommerzeit),1563127264568,5.878333333333333,NA,firstblock,2
707,,3018,20,:*,Graduated High School,1563127617268,73,male,German,NA,not at all,very,realartsyimages/014.jpg,NA,<br /><br /><br /><br />Rate this picture,7,false,Sun Jul 14 2019 20:01:04 GMT+0200 (Mitteleuropäische Sommerzeit),1563127264568,5.878333333333333,NA,firstblock,3
707,,2140,20,:*,Graduated High School,1563127617268,73,male,German,NA,not at all,very,realartsyimages/002.jpg,NA,<br /><br /><br /><br />Rate this picture,6,false,Sun Jul 14 2019 20:01:04 GMT+0200 (Mitteleuropäische Sommerzeit),1563127264568,5.878333333333333,NA,firstblock,4
707,,3192,20,:*,Graduated High School,1563127617268,73,male,German,NA,not at all,very,realartsyimages/104.jpg,NA,<br /><br /><br /><br />Rate this picture,5,false,Sun Jul 14 2019 20:01:04 GMT+0200 (Mitteleuropäische Sommerzeit),1563127264568,5.878333333333333,NA,firstblock,5
707,,1870,20,:*,Graduated High School,1563127617268,73,male,German,NA,not at all,very,realartsyimages/096.jpg,NA,<br /><br /><br /><br />Rate this picture,7,false,Sun Jul 14 2019 20:01:04 GMT+0200 (Mitteleuropäische Sommerzeit),1563127264568,5.878333333333333,NA,firstblock,6
707,,3529,20,:*,Graduated High School,1563127617268,73,male,German,NA,not at all,very,realartsyimages/092.jpg,NA,<br /><br /><br /><br />Rate this picture,6,false,Sun Jul 14 2019 20:01:04 GMT+0200 (Mitteleuropäische Sommerzeit),1563127264568,5.878333333333333,NA,firstblock,7
707,,1986,20,:*,Graduated High School,1563127617268,73,male,German,NA,not at all,very,realartsyimages/037.jpg,NA,<br /><br /><br /><br />Rate this picture,5,false,Sun Jul 14 2019 20:01:04 GMT+0200 (Mitteleuropäische Sommerzeit),1563127264568,5.878333333333333,NA,firstblock,8
707,,1630,20,:*,Graduated High School,1563127617268,73,male,German,NA,not at all,very,realartsyimages/105.jpg,NA,<br /><br /><br /><br />Rate this picture,6,false,Sun Jul 14 2019 20:01:04 GMT+0200 (Mitteleuropäische Sommerzeit),1563127264568,5.878333333333333,NA,firstblock,9
707,,2330,20,:*,Graduated High School,1563127617268,73,male,German,NA,not at all,very,realartsyimages/098.jpg,NA,<br /><br /><br /><br />Rate this picture,7,false,Sun Jul 14 2019 20:01:04 GMT+0200 (Mitteleuropäische Sommerzeit),1563127264568,5.878333333333333,NA,firstblock,10
707,,1846,20,:*,Graduated High School,1563127617268,73,male,German,NA,not at all,very,realartsyimages/079.jpg,NA,<br /><br /><br /><br />Rate this picture,5,false,Sun Jul 14 2019 20:01:04 GMT+0200 (Mitteleuropäische Sommerzeit),1563127264568,5.878333333333333,NA,firstblock,11
707,,1900,20,:*,Graduated High School,1563127617268,73,male,German,NA,not at all,very,realartsyimages/005.jpg,NA,<br /><br /><br /><br />Rate this picture,4,false,Sun Jul 14 2019 20:01:04 GMT+0200 (Mitteleuropäische Sommerzeit),1563127264568,5.878333333333333,NA,firstblock,12
707,,2724,20,:*,Graduated High School,1563127617268,73,male,German,NA,not at all,very,realartsyimages/103.jpg,NA,<br /><br /><br /><br />Rate this picture,6,false,Sun Jul 14 2019 20:01:04 GMT+0200 (Mitteleuropäische Sommerzeit),1563127264568,5.878333333333333,NA,firstblock,13
707,,1876,20,:*,Graduated High School,1563127617268,73,male,German,NA,not at all,very,realartsyimages/007.jpg,NA,<br /><br /><br /><br />Rate this picture,6,false,Sun Jul 14 2019 20:01:04 GMT+0200 (Mitteleuropäische Sommerzeit),1563127264568,5.878333333333333,NA,firstblock,14
707,,2159,20,:*,Graduated High School,1563127617268,73,male,German,NA,not at all,very,realartsyimages/043.jpg,NA,<br /><br /><br /><br />Rate this picture,6,false,Sun Jul 14 2019 20:01:04 GMT+0200 (Mitteleuropäische Sommerzeit),1563127264568,5.878333333333333,NA,firstblock,15
707,,2527,20,:*,Graduated High School,1563127617268,73,male,German,NA,not at all,very,realartsyimages/099.jpg,NA,<br /><br /><br /><br />Rate this picture,5,false,Sun Jul 14 2019 20:01:04 GMT+0200 (Mitteleuropäische Sommerzeit),1563127264568,5.878333333333333,NA,firstblock,16
707,,2167,20,:*,Graduated High School,1563127617268,73,male,German,NA,not at all,very,realartsyimages/072.jpg,NA,<br /><br /><br /><br />Rate this picture,3,false,Sun Jul 14 2019 20:01:04 GMT+0200 (Mitteleuropäische Sommerzeit),1563127264568,5.878333333333333,NA,firstblock,17
707,,1858,20,:*,Graduated High School,1563127617268,73,male,German,NA,not at all,very,realartsyimages/101.jpg,NA,<br /><br /><br /><br />Rate this picture,2,false,Sun Jul 14 2019 20:01:04 GMT+0200 (Mitteleuropäische Sommerzeit),1563127264568,5.878333333333333,NA,firstblock,18
707,,2138,20,:*,Graduated High School,1563127617268,73,male,German,NA,not at all,very,realartsyimages/084.jpg,NA,<br /><br /><br /><br />Rate this picture,3,false,Sun Jul 14 2019 20:01:04 GMT+0200 (Mitteleuropäische Sommerzeit),1563127264568,5.878333333333333,NA,firstblock,19
707,,1933,20,:*,Graduated High School,1563127617268,73,male,German,NA,not at all,very,realartsyimages/074.jpg,NA,<br /><br /><br /><br />Rate this picture,3,false,Sun Jul 14 2019 20:01:04 GMT+0200 (Mitteleuropäische Sommerzeit),1563127264568,5.878333333333333,NA,firstblock,20
707,,1496,20,:*,Graduated High School,1563127617268,73,male,German,NA,not at all,very,realartsyimages/010.jpg,NA,<br /><br /><br /><br />Rate this picture,7,false,Sun Jul 14 2019 20:01:04 GMT+0200 (Mitteleuropäische Sommerzeit),1563127264568,5.878333333333333,NA,firstblock,21
707,,1491,20,:*,Graduated High School,1563127617268,73,male,German,NA,not at all,very,realartsyimages/093.jpg,NA,<br /><br /><br /><br />Rate this picture,2,false,Sun Jul 14 2019 20:01:04 GMT+0200 (Mitteleuropäische Sommerzeit),1563127264568,5.878333333333333,NA,firstblock,22
707,,2943,20,:*,Graduated High School,1563127617268,73,male,German,NA,not at all,very,realartsyimages/095.jpg,NA,<br /><br /><br /><br />Rate this picture,2,false,Sun Jul 14 2019 20:01:04 GMT+0200 (Mitteleuropäische Sommerzeit),1563127264568,5.878333333333333,NA,firstblock,23
707,,5093,20,:*,Graduated High School,1563127617268,73,male,German,NA,not at all,very,realartsyimages/086.jpg,NA,<br /><br /><br /><br />Rate this picture,4,false,Sun Jul 14 2019 20:01:04 GMT+0200 (Mitteleuropäische Sommerzeit),1563127264568,5.878333333333333,NA,firstblock,24
707,,1722,20,:*,Graduated High School,1563127617268,73,male,German,NA,not at all,very,realartsyimages/008.jpg,NA,<br /><br /><br /><br />Rate this picture,7,false,Sun Jul 14 2019 20:01:04 GMT+0200 (Mitteleuropäische Sommerzeit),1563127264568,5.878333333333333,NA,firstblock,25
707,,1578,20,:*,Graduated High School,1563127617268,73,male,German,NA,not at all,very,realartsyimages/087.jpg,NA,<br /><br /><br /><br />Rate this picture,2,false,Sun Jul 14 2019 20:01:04 GMT+0200 (Mitteleuropäische Sommerzeit),1563127264568,5.878333333333333,NA,firstblock,26
707,,1676,20,:*,Graduated High School,1563127617268,73,male,German,NA,not at all,very,realartsyimages/073.jpg,NA,<br /><br /><br /><br />Rate this picture,3,false,Sun Jul 14 2019 20:01:04 GMT+0200 (Mitteleuropäische Sommerzeit),1563127264568,5.878333333333333,NA,firstblock,27
707,,3044,20,:*,Graduated High School,1563127617268,73,male,German,NA,not at all,very,realartsyimages/039.jpg,NA,<br /><br /><br /><br />Rate this picture,3,false,Sun Jul 14 2019 20:01:04 GMT+0200 (Mitteleuropäische Sommerzeit),1563127264568,5.878333333333333,NA,firstblock,28
707,,1583,20,:*,Graduated High School,1563127617268,73,male,German,NA,not at all,very,realartsyimages/050.jpg,NA,<br /><br /><br /><br />Rate this picture,6,false,Sun Jul 14 2019 20:01:04 GMT+0200 (Mitteleuropäische Sommerzeit),1563127264568,5.878333333333333,NA,firstblock,29
707,,1611,20,:*,Graduated High School,1563127617268,73,male,German,NA,not at all,very,realartsyimages/040.jpg,NA,<br /><br /><br /><br />Rate this picture,7,false,Sun Jul 14 2019 20:01:04 GMT+0200 (Mitteleuropäische Sommerzeit),1563127264568,5.878333333333333,NA,firstblock,30
707,,1640,20,:*,Graduated High School,1563127617268,73,male,German,NA,not at all,very,realartsyimages/046.jpg,NA,<br /><br /><br /><br />Rate this picture,5,false,Sun Jul 14 2019 20:01:04 GMT+0200 (Mitteleuropäische Sommerzeit),1563127264568,5.878333333333333,NA,firstblock,31
707,,1581,20,:*,Graduated High School,1563127617268,73,male,German,NA,not at all,very,realartsyimages/009.jpg,NA,<br /><br /><br /><br />Rate this picture,3,false,Sun Jul 14 2019 20:01:04 GMT+0200 (Mitteleuropäische Sommerzeit),1563127264568,5.878333333333333,NA,firstblock,32
707,,2512,20,:*,Graduated High School,1563127617268,73,male,German,NA,not at all,very,realartsyimages/075.jpg,NA,<br /><br /><br /><br />Rate this picture,2,false,Sun Jul 14 2019 20:01:04 GMT+0200 (Mitteleuropäische Sommerzeit),1563127264568,5.878333333333333,NA,firstblock,33
707,,1473,20,:*,Graduated High School,1563127617268,73,male,German,NA,not at all,very,realartsyimages/047.jpg,NA,<br /><br /><br /><br />Rate this picture,6,false,Sun Jul 14 2019 20:01:04 GMT+0200 (Mitteleuropäische Sommerzeit),1563127264568,5.878333333333333,NA,firstblock,34
707,,1630,20,:*,Graduated High School,1563127617268,73,male,German,NA,not at all,very,realartsyimages/082.jpg,NA,<br /><br /><br /><br />Rate this picture,4,false,Sun Jul 14 2019 20:01:04 GMT+0200 (Mitteleuropäische Sommerzeit),1563127264568,5.878333333333333,NA,firstblock,35
707,,1536,20,:*,Graduated High School,1563127617268,73,male,German,NA,not at all,very,realartsyimages/077.jpg,NA,<br /><br /><br /><br />Rate this picture,3,false,Sun Jul 14 2019 20:01:04 GMT+0200 (Mitteleuropäische Sommerzeit),1563127264568,5.878333333333333,NA,firstblock,36
707,,1542,20,:*,Graduated High School,1563127617268,73,male,German,NA,not at all,very,realartsyimages/006.jpg,NA,<br /><br /><br /><br />Rate this picture,6,false,Sun Jul 14 2019 20:01:04 GMT+0200 (Mitteleuropäische Sommerzeit),1563127264568,5.878333333333333,NA,firstblock,37
707,,1722,20,:*,Graduated High School,1563127617268,73,male,German,NA,not at all,very,realartsyimages/100.jpg,NA,<br /><br /><br /><br />Rate this picture,2,false,Sun Jul 14 2019 20:01:04 GMT+0200 (Mitteleuropäische Sommerzeit),1563127264568,5.878333333333333,NA,firstblock,38
707,,1494,20,:*,Graduated High School,1563127617268,73,male,German,NA,not at all,very,realartsyimages/080.jpg,NA,<br /><br /><br /><br />Rate this picture,3,false,Sun Jul 14 2019 20:01:04 GMT+0200 (Mitteleuropäische Sommerzeit),1563127264568,5.878333333333333,NA,firstblock,39
707,,1479,20,:*,Graduated High School,1563127617268,73,male,German,NA,not at all,very,realartsyimages/094.jpg,NA,<br /><br /><br /><br />Rate this picture,3,false,Sun Jul 14 2019 20:01:04 GMT+0200 (Mitteleuropäische Sommerzeit),1563127264568,5.878333333333333,NA,firstblock,40
707,,2029,20,:*,Graduated High School,1563127617268,73,male,German,NA,not at all,very,realartsyimages/044.jpg,NA,<br /><br /><br /><br />Rate this picture,3,false,Sun Jul 14 2019 20:01:04 GMT+0200 (Mitteleuropäische Sommerzeit),1563127264568,5.878333333333333,NA,firstblock,41
707,,1941,20,:*,Graduated High School,1563127617268,73,male,German,NA,not at all,very,realartsyimages/085.jpg,NA,<br /><br /><br /><br />Rate this picture,3,false,Sun Jul 14 2019 20:01:04 GMT+0200 (Mitteleuropäische Sommerzeit),1563127264568,5.878333333333333,NA,firstblock,42
707,,1323,20,:*,Graduated High School,1563127617268,73,male,German,NA,not at all,very,realartsyimages/004.jpg,NA,<br /><br /><br /><br />Rate this picture,3,false,Sun Jul 14 2019 20:01:04 GMT+0200 (Mitteleuropäische Sommerzeit),1563127264568,5.878333333333333,NA,firstblock,43
707,,1637,20,:*,Graduated High School,1563127617268,73,male,German,NA,not at all,very,realartsyimages/045.jpg,NA,<br /><br /><br /><br />Rate this picture,3,false,Sun Jul 14 2019 20:01:04 GMT+0200 (Mitteleuropäische Sommerzeit),1563127264568,5.878333333333333,NA,firstblock,44
707,,2496,20,:*,Graduated High School,1563127617268,73,male,German,NA,not at all,very,realartsyimages/076.jpg,NA,<br /><br /><br /><br />Rate this picture,3,false,Sun Jul 14 2019 20:01:04 GMT+0200 (Mitteleuropäische Sommerzeit),1563127264568,5.878333333333333,NA,firstblock,45
707,,1369,20,:*,Graduated High School,1563127617268,73,male,German,NA,not at all,very,realartsyimages/042.jpg,NA,<br /><br /><br /><br />Rate this picture,3,false,Sun Jul 14 2019 20:01:04 GMT+0200 (Mitteleuropäische Sommerzeit),1563127264568,5.878333333333333,NA,firstblock,46
707,,1454,20,:*,Graduated High School,1563127617268,73,male,German,NA,not at all,very,realartsyimages/001.jpg,NA,<br /><br /><br /><br />Rate this picture,3,false,Sun Jul 14 2019 20:01:04 GMT+0200 (Mitteleuropäische Sommerzeit),1563127264568,5.878333333333333,NA,firstblock,47
707,,1265,20,:*,Graduated High School,1563127617268,73,male,German,NA,not at all,very,realartsyimages/083.jpg,NA,<br /><br /><br /><br />Rate this picture,3,false,Sun Jul 14 2019 20:01:04 GMT+0200 (Mitteleuropäische Sommerzeit),1563127264568,5.878333333333333,NA,firstblock,48
707,,1754,20,:*,Graduated High School,1563127617268,73,male,German,NA,not at all,very,realartsyimages/015.jpg,NA,<br /><br /><br /><br />Rate this picture,6,false,Sun Jul 14 2019 20:01:04 GMT+0200 (Mitteleuropäische Sommerzeit),1563127264568,5.878333333333333,NA,firstblock,49
707,,1868,20,:*,Graduated High School,1563127617268,73,male,German,NA,not at all,very,realartsyimages/048.jpg,NA,<br /><br /><br /><br />Rate this picture,3,false,Sun Jul 14 2019 20:01:04 GMT+0200 (Mitteleuropäische Sommerzeit),1563127264568,5.878333333333333,NA,firstblock,50
707,,1383,20,:*,Graduated High School,1563127617268,73,male,German,NA,not at all,very,realartsyimages/106.jpg,NA,<br /><br /><br /><br />Rate this picture,3,false,Sun Jul 14 2019 20:01:04 GMT+0200 (Mitteleuropäische Sommerzeit),1563127264568,5.878333333333333,NA,firstblock,51
707,,1475,20,:*,Graduated High School,1563127617268,73,male,German,NA,not at all,very,realartsyimages/013.jpg,NA,<br /><br /><br /><br />Rate this picture,3,false,Sun Jul 14 2019 20:01:04 GMT+0200 (Mitteleuropäische Sommerzeit),1563127264568,5.878333333333333,NA,firstblock,52
707,,1612,20,:*,Graduated High School,1563127617268,73,male,German,NA,not at all,very,realartsyimages/011.jpg,NA,<br /><br /><br /><br />Rate this picture,6,false,Sun Jul 14 2019 20:01:04 GMT+0200 (Mitteleuropäische Sommerzeit),1563127264568,5.878333333333333,NA,firstblock,53
707,,1185,20,:*,Graduated High School,1563127617268,73,male,German,NA,not at all,very,realartsyimages/036.jpg,NA,<br /><br /><br /><br />Rate this picture,2,false,Sun Jul 14 2019 20:01:04 GMT+0200 (Mitteleuropäische Sommerzeit),1563127264568,5.878333333333333,NA,firstblock,54
707,,3907,20,:*,Graduated High School,1563127617268,73,male,German,NA,not at all,very,realartsyimages/003.jpg,NA,<br /><br /><br /><br />Rate this picture,2,false,Sun Jul 14 2019 20:01:04 GMT+0200 (Mitteleuropäische Sommerzeit),1563127264568,5.878333333333333,NA,firstblock,55
707,,1565,20,:*,Graduated High School,1563127617268,73,male,German,NA,not at all,very,realartsyimages/041.jpg,NA,<br /><br /><br /><br />Rate this picture,2,false,Sun Jul 14 2019 20:01:04 GMT+0200 (Mitteleuropäische Sommerzeit),1563127264568,5.878333333333333,NA,firstblock,56
707,,82630,20,:*,Graduated High School,1563127617268,73,male,German,NA,not at all,very,realartsyimages/012.jpg,NA,<br /><br /><br /><br />Rate this picture,3,false,Sun Jul 14 2019 20:01:04 GMT+0200 (Mitteleuropäische Sommerzeit),1563127264568,5.878333333333333,NA,firstblock,57
707,,1676,20,:*,Graduated High School,1563127617268,73,male,German,NA,not at all,very,realartsyimages/097.jpg,NA,<br /><br /><br /><br />Rate this picture,3,false,Sun Jul 14 2019 20:01:04 GMT+0200 (Mitteleuropäische Sommerzeit),1563127264568,5.878333333333333,NA,firstblock,58
707,,1465,20,:*,Graduated High School,1563127617268,73,male,German,NA,not at all,very,realartsyimages/081.jpg,NA,<br /><br /><br /><br />Rate this picture,3,false,Sun Jul 14 2019 20:01:04 GMT+0200 (Mitteleuropäische Sommerzeit),1563127264568,5.878333333333333,NA,firstblock,59
707,,1519,20,:*,Graduated High School,1563127617268,73,male,German,NA,not at all,very,realartsyimages/102.jpg,NA,<br /><br /><br /><br />Rate this picture,3,false,Sun Jul 14 2019 20:01:04 GMT+0200 (Mitteleuropäische Sommerzeit),1563127264568,5.878333333333333,NA,firstblock,60
707,,1502,20,:*,Graduated High School,1563127617268,73,male,German,NA,not at all,very,realartsyimages/101.jpg,NA,<br /><br /><br /><br />Rate this picture,3,false,Sun Jul 14 2019 20:01:04 GMT+0200 (Mitteleuropäische Sommerzeit),1563127264568,5.878333333333333,NA,secondblock,1
707,,1226,20,:*,Graduated High School,1563127617268,73,male,German,NA,not at all,very,realartsyimages/039.jpg,NA,<br /><br /><br /><br />Rate this picture,3,false,Sun Jul 14 2019 20:01:04 GMT+0200 (Mitteleuropäische Sommerzeit),1563127264568,5.878333333333333,NA,secondblock,2
707,,1274,20,:*,Graduated High School,1563127617268,73,male,German,NA,not at all,very,realartsyimages/099.jpg,NA,<br /><br /><br /><br />Rate this picture,4,false,Sun Jul 14 2019 20:01:04 GMT+0200 (Mitteleuropäische Sommerzeit),1563127264568,5.878333333333333,NA,secondblock,3
707,,1281,20,:*,Graduated High School,1563127617268,73,male,German,NA,not at all,very,realartsyimages/104.jpg,NA,<br /><br /><br /><br />Rate this picture,4,false,Sun Jul 14 2019 20:01:04 GMT+0200 (Mitteleuropäische Sommerzeit),1563127264568,5.878333333333333,NA,secondblock,4
707,,2100,20,:*,Graduated High School,1563127617268,73,male,German,NA,not at all,very,realartsyimages/002.jpg,NA,<br /><br /><br /><br />Rate this picture,7,false,Sun Jul 14 2019 20:01:04 GMT+0200 (Mitteleuropäische Sommerzeit),1563127264568,5.878333333333333,NA,secondblock,5
707,,1430,20,:*,Graduated High School,1563127617268,73,male,German,NA,not at all,very,realartsyimages/043.jpg,NA,<br /><br /><br /><br />Rate this picture,4,false,Sun Jul 14 2019 20:01:04 GMT+0200 (Mitteleuropäische Sommerzeit),1563127264568,5.878333333333333,NA,secondblock,6
707,,1284,20,:*,Graduated High School,1563127617268,73,male,German,NA,not at all,very,realartsyimages/100.jpg,NA,<br /><br /><br /><br />Rate this picture,4,false,Sun Jul 14 2019 20:01:04 GMT+0200 (Mitteleuropäische Sommerzeit),1563127264568,5.878333333333333,NA,secondblock,7
707,,2871,20,:*,Graduated High School,1563127617268,73,male,German,NA,not at all,very,realartsyimages/010.jpg,NA,<br /><br /><br /><br />Rate this picture,7,false,Sun Jul 14 2019 20:01:04 GMT+0200 (Mitteleuropäische Sommerzeit),1563127264568,5.878333333333333,NA,secondblock,8
707,,1613,20,:*,Graduated High School,1563127617268,73,male,German,NA,not at all,very,realartsyimages/038.jpg,NA,<br /><br /><br /><br />Rate this picture,4,false,Sun Jul 14 2019 20:01:04 GMT+0200 (Mitteleuropäische Sommerzeit),1563127264568,5.878333333333333,NA,secondblock,9
707,,1129,20,:*,Graduated High School,1563127617268,73,male,German,NA,not at all,very,realartsyimages/012.jpg,NA,<br /><br /><br /><br />Rate this picture,4,false,Sun Jul 14 2019 20:01:04 GMT+0200 (Mitteleuropäische Sommerzeit),1563127264568,5.878333333333333,NA,secondblock,10
707,,930,20,:*,Graduated High School,1563127617268,73,male,German,NA,not at all,very,realartsyimages/095.jpg,NA,<br /><br /><br /><br />Rate this picture,4,false,Sun Jul 14 2019 20:01:04 GMT+0200 (Mitteleuropäische Sommerzeit),1563127264568,5.878333333333333,NA,secondblock,11
707,,793,20,:*,Graduated High School,1563127617268,73,male,German,NA,not at all,very,realartsyimages/009.jpg,NA,<br /><br /><br /><br />Rate this picture,5,false,Sun Jul 14 2019 20:01:04 GMT+0200 (Mitteleuropäische Sommerzeit),1563127264568,5.878333333333333,NA,secondblock,12
707,,1309,20,:*,Graduated High School,1563127617268,73,male,German,NA,not at all,very,realartsyimages/006.jpg,NA,<br /><br /><br /><br />Rate this picture,4,false,Sun Jul 14 2019 20:01:04 GMT+0200 (Mitteleuropäische Sommerzeit),1563127264568,5.878333333333333,NA,secondblock,13
707,,1378,20,:*,Graduated High School,1563127617268,73,male,German,NA,not at all,very,realartsyimages/086.jpg,NA,<br /><br /><br /><br />Rate this picture,4,false,Sun Jul 14 2019 20:01:04 GMT+0200 (Mitteleuropäische Sommerzeit),1563127264568,5.878333333333333,NA,secondblock,14
707,,1599,20,:*,Graduated High School,1563127617268,73,male,German,NA,not at all,very,realartsyimages/092.jpg,NA,<br /><br /><br /><br />Rate this picture,4,false,Sun Jul 14 2019 20:01:04 GMT+0200 (Mitteleuropäische Sommerzeit),1563127264568,5.878333333333333,NA,secondblock,15
707,,1477,20,:*,Graduated High School,1563127617268,73,male,German,NA,not at all,very,realartsyimages/005.jpg,NA,<br /><br /><br /><br />Rate this picture,4,false,Sun Jul 14 2019 20:01:04 GMT+0200 (Mitteleuropäische Sommerzeit),1563127264568,5.878333333333333,NA,secondblock,16
707,,1418,20,:*,Graduated High School,1563127617268,73,male,German,NA,not at all,very,realartsyimages/074.jpg,NA,<br /><br /><br /><br />Rate this picture,4,false,Sun Jul 14 2019 20:01:04 GMT+0200 (Mitteleuropäische Sommerzeit),1563127264568,5.878333333333333,NA,secondblock,17
707,,2459,20,:*,Graduated High School,1563127617268,73,male,German,NA,not at all,very,realartsyimages/015.jpg,NA,<br /><br /><br /><br />Rate this picture,7,false,Sun Jul 14 2019 20:01:04 GMT+0200 (Mitteleuropäische Sommerzeit),1563127264568,5.878333333333333,NA,secondblock,18
707,,12944,20,:*,Graduated High School,1563127617268,73,male,German,NA,not at all,very,realartsyimages/044.jpg,NA,<br /><br /><br /><br />Rate this picture,4,false,Sun Jul 14 2019 20:01:04 GMT+0200 (Mitteleuropäische Sommerzeit),1563127264568,5.878333333333333,NA,secondblock,19
707,,1541,20,:*,Graduated High School,1563127617268,73,male,German,NA,not at all,very,realartsyimages/040.jpg,NA,<br /><br /><br /><br />Rate this picture,7,false,Sun Jul 14 2019 20:01:04 GMT+0200 (Mitteleuropäische Sommerzeit),1563127264568,5.878333333333333,NA,secondblock,20
707,,1774,20,:*,Graduated High School,1563127617268,73,male,German,NA,not at all,very,realartsyimages/083.jpg,NA,<br /><br /><br /><br />Rate this picture,4,false,Sun Jul 14 2019 20:01:04 GMT+0200 (Mitteleuropäische Sommerzeit),1563127264568,5.878333333333333,NA,secondblock,21
707,,3197,20,:*,Graduated High School,1563127617268,73,male,German,NA,not at all,very,realartsyimages/049.jpg,NA,<br /><br /><br /><br />Rate this picture,4,false,Sun Jul 14 2019 20:01:04 GMT+0200 (Mitteleuropäische Sommerzeit),1563127264568,5.878333333333333,NA,secondblock,22
707,,1224,20,:*,Graduated High School,1563127617268,73,male,German,NA,not at all,very,realartsyimages/004.jpg,NA,<br /><br /><br /><br />Rate this picture,4,false,Sun Jul 14 2019 20:01:04 GMT+0200 (Mitteleuropäische Sommerzeit),1563127264568,5.878333333333333,NA,secondblock,23
707,,1281,20,:*,Graduated High School,1563127617268,73,male,German,NA,not at all,very,realartsyimages/076.jpg,NA,<br /><br /><br /><br />Rate this picture,4,false,Sun Jul 14 2019 20:01:04 GMT+0200 (Mitteleuropäische Sommerzeit),1563127264568,5.878333333333333,NA,secondblock,24
707,,1217,20,:*,Graduated High School,1563127617268,73,male,German,NA,not at all,very,realartsyimages/098.jpg,NA,<br /><br /><br /><br />Rate this picture,5,false,Sun Jul 14 2019 20:01:04 GMT+0200 (Mitteleuropäische Sommerzeit),1563127264568,5.878333333333333,NA,secondblock,25
707,,1280,20,:*,Graduated High School,1563127617268,73,male,German,NA,not at all,very,realartsyimages/079.jpg,NA,<br /><br /><br /><br />Rate this picture,4,false,Sun Jul 14 2019 20:01:04 GMT+0200 (Mitteleuropäische Sommerzeit),1563127264568,5.878333333333333,NA,secondblock,26
707,,1081,20,:*,Graduated High School,1563127617268,73,male,German,NA,not at all,very,realartsyimages/075.jpg,NA,<br /><br /><br /><br />Rate this picture,4,false,Sun Jul 14 2019 20:01:04 GMT+0200 (Mitteleuropäische Sommerzeit),1563127264568,5.878333333333333,NA,secondblock,27
707,,1063,20,:*,Graduated High School,1563127617268,73,male,German,NA,not at all,very,realartsyimages/077.jpg,NA,<br /><br /><br /><br />Rate this picture,4,false,Sun Jul 14 2019 20:01:04 GMT+0200 (Mitteleuropäische Sommerzeit),1563127264568,5.878333333333333,NA,secondblock,28
707,,1361,20,:*,Graduated High School,1563127617268,73,male,German,NA,not at all,very,realartsyimages/078.jpg,NA,<br /><br /><br /><br />Rate this picture,4,false,Sun Jul 14 2019 20:01:04 GMT+0200 (Mitteleuropäische Sommerzeit),1563127264568,5.878333333333333,NA,secondblock,29
707,,1220,20,:*,Graduated High School,1563127617268,73,male,German,NA,not at all,very,realartsyimages/042.jpg,NA,<br /><br /><br /><br />Rate this picture,4,false,Sun Jul 14 2019 20:01:04 GMT+0200 (Mitteleuropäische Sommerzeit),1563127264568,5.878333333333333,NA,secondblock,30
707,,772,20,:*,Graduated High School,1563127617268,73,male,German,NA,not at all,very,realartsyimages/045.jpg,NA,<br /><br /><br /><br />Rate this picture,5,false,Sun Jul 14 2019 20:01:04 GMT+0200 (Mitteleuropäische Sommerzeit),1563127264568,5.878333333333333,NA,secondblock,31
707,,781,20,:*,Graduated High School,1563127617268,73,male,German,NA,not at all,very,realartsyimages/011.jpg,NA,<br /><br /><br /><br />Rate this picture,4,false,Sun Jul 14 2019 20:01:04 GMT+0200 (Mitteleuropäische Sommerzeit),1563127264568,5.878333333333333,NA,secondblock,32
707,,686,20,:*,Graduated High School,1563127617268,73,male,German,NA,not at all,very,realartsyimages/013.jpg,NA,<br /><br /><br /><br />Rate this picture,4,false,Sun Jul 14 2019 20:01:04 GMT+0200 (Mitteleuropäische Sommerzeit),1563127264568,5.878333333333333,NA,secondblock,33
707,,651,20,:*,Graduated High School,1563127617268,73,male,German,NA,not at all,very,realartsyimages/085.jpg,NA,<br /><br /><br /><br />Rate this picture,4,false,Sun Jul 14 2019 20:01:04 GMT+0200 (Mitteleuropäische Sommerzeit),1563127264568,5.878333333333333,NA,secondblock,34
707,,660,20,:*,Graduated High School,1563127617268,73,male,German,NA,not at all,very,realartsyimages/047.jpg,NA,<br /><br /><br /><br />Rate this picture,4,false,Sun Jul 14 2019 20:01:04 GMT+0200 (Mitteleuropäische Sommerzeit),1563127264568,5.878333333333333,NA,secondblock,35
707,,565,20,:*,Graduated High School,1563127617268,73,male,German,NA,not at all,very,realartsyimages/097.jpg,NA,<br /><br /><br /><br />Rate this picture,4,false,Sun Jul 14 2019 20:01:04 GMT+0200 (Mitteleuropäische Sommerzeit),1563127264568,5.878333333333333,NA,secondblock,36
707,,510,20,:*,Graduated High School,1563127617268,73,male,German,NA,not at all,very,realartsyimages/094.jpg,NA,<br /><br /><br /><br />Rate this picture,4,false,Sun Jul 14 2019 20:01:04 GMT+0200 (Mitteleuropäische Sommerzeit),1563127264568,5.878333333333333,NA,secondblock,37
707,,512,20,:*,Graduated High School,1563127617268,73,male,German,NA,not at all,very,realartsyimages/050.jpg,NA,<br /><br /><br /><br />Rate this picture,4,false,Sun Jul 14 2019 20:01:04 GMT+0200 (Mitteleuropäische Sommerzeit),1563127264568,5.878333333333333,NA,secondblock,38
707,,542,20,:*,Graduated High School,1563127617268,73,male,German,NA,not at all,very,realartsyimages/096.jpg,NA,<br /><br /><br /><br />Rate this picture,4,false,Sun Jul 14 2019 20:01:04 GMT+0200 (Mitteleuropäische Sommerzeit),1563127264568,5.878333333333333,NA,secondblock,39
707,,486,20,:*,Graduated High School,1563127617268,73,male,German,NA,not at all,very,realartsyimages/036.jpg,NA,<br /><br /><br /><br />Rate this picture,4,false,Sun Jul 14 2019 20:01:04 GMT+0200 (Mitteleuropäische Sommerzeit),1563127264568,5.878333333333333,NA,secondblock,40
707,,700,20,:*,Graduated High School,1563127617268,73,male,German,NA,not at all,very,realartsyimages/080.jpg,NA,<br /><br /><br /><br />Rate this picture,4,false,Sun Jul 14 2019 20:01:04 GMT+0200 (Mitteleuropäische Sommerzeit),1563127264568,5.878333333333333,NA,secondblock,41
707,,505,20,:*,Graduated High School,1563127617268,73,male,German,NA,not at all,very,realartsyimages/087.jpg,NA,<br /><br /><br /><br />Rate this picture,4,false,Sun Jul 14 2019 20:01:04 GMT+0200 (Mitteleuropäische Sommerzeit),1563127264568,5.878333333333333,NA,secondblock,42
707,,1634,20,:*,Graduated High School,1563127617268,73,male,German,NA,not at all,very,realartsyimages/001.jpg,NA,<br /><br /><br /><br />Rate this picture,7,false,Sun Jul 14 2019 20:01:04 GMT+0200 (Mitteleuropäische Sommerzeit),1563127264568,5.878333333333333,NA,secondblock,43
707,,922,20,:*,Graduated High School,1563127617268,73,male,German,NA,not at all,very,realartsyimages/007.jpg,NA,<br /><br /><br /><br />Rate this picture,4,false,Sun Jul 14 2019 20:01:04 GMT+0200 (Mitteleuropäische Sommerzeit),1563127264568,5.878333333333333,NA,secondblock,44
707,,588,20,:*,Graduated High School,1563127617268,73,male,German,NA,not at all,very,realartsyimages/037.jpg,NA,<br /><br /><br /><br />Rate this picture,4,false,Sun Jul 14 2019 20:01:04 GMT+0200 (Mitteleuropäische Sommerzeit),1563127264568,5.878333333333333,NA,secondblock,45
707,,577,20,:*,Graduated High School,1563127617268,73,male,German,NA,not at all,very,realartsyimages/048.jpg,NA,<br /><br /><br /><br />Rate this picture,4,false,Sun Jul 14 2019 20:01:04 GMT+0200 (Mitteleuropäische Sommerzeit),1563127264568,5.878333333333333,NA,secondblock,46
707,,640,20,:*,Graduated High School,1563127617268,73,male,German,NA,not at all,very,realartsyimages/084.jpg,NA,<br /><br /><br /><br />Rate this picture,4,false,Sun Jul 14 2019 20:01:04 GMT+0200 (Mitteleuropäische Sommerzeit),1563127264568,5.878333333333333,NA,secondblock,47
707,,564,20,:*,Graduated High School,1563127617268,73,male,German,NA,not at all,very,realartsyimages/073.jpg,NA,<br /><br /><br /><br />Rate this picture,4,false,Sun Jul 14 2019 20:01:04 GMT+0200 (Mitteleuropäische Sommerzeit),1563127264568,5.878333333333333,NA,secondblock,48
707,,542,20,:*,Graduated High School,1563127617268,73,male,German,NA,not at all,very,realartsyimages/105.jpg,NA,<br /><br /><br /><br />Rate this picture,4,false,Sun Jul 14 2019 20:01:04 GMT+0200 (Mitteleuropäische Sommerzeit),1563127264568,5.878333333333333,NA,secondblock,49
707,,612,20,:*,Graduated High School,1563127617268,73,male,German,NA,not at all,very,realartsyimages/003.jpg,NA,<br /><br /><br /><br />Rate this picture,4,false,Sun Jul 14 2019 20:01:04 GMT+0200 (Mitteleuropäische Sommerzeit),1563127264568,5.878333333333333,NA,secondblock,50
707,,615,20,:*,Graduated High School,1563127617268,73,male,German,NA,not at all,very,realartsyimages/046.jpg,NA,<br /><br /><br /><br />Rate this picture,4,false,Sun Jul 14 2019 20:01:04 GMT+0200 (Mitteleuropäische Sommerzeit),1563127264568,5.878333333333333,NA,secondblock,51
707,,565,20,:*,Graduated High School,1563127617268,73,male,German,NA,not at all,very,realartsyimages/014.jpg,NA,<br /><br /><br /><br />Rate this picture,4,false,Sun Jul 14 2019 20:01:04 GMT+0200 (Mitteleuropäische Sommerzeit),1563127264568,5.878333333333333,NA,secondblock,52
707,,543,20,:*,Graduated High School,1563127617268,73,male,German,NA,not at all,very,realartsyimages/008.jpg,NA,<br /><br /><br /><br />Rate this picture,4,false,Sun Jul 14 2019 20:01:04 GMT+0200 (Mitteleuropäische Sommerzeit),1563127264568,5.878333333333333,NA,secondblock,53
707,,556,20,:*,Graduated High School,1563127617268,73,male,German,NA,not at all,very,realartsyimages/072.jpg,NA,<br /><br /><br /><br />Rate this picture,4,false,Sun Jul 14 2019 20:01:04 GMT+0200 (Mitteleuropäische Sommerzeit),1563127264568,5.878333333333333,NA,secondblock,54
707,,670,20,:*,Graduated High School,1563127617268,73,male,German,NA,not at all,very,realartsyimages/103.jpg,NA,<br /><br /><br /><br />Rate this picture,4,false,Sun Jul 14 2019 20:01:04 GMT+0200 (Mitteleuropäische Sommerzeit),1563127264568,5.878333333333333,NA,secondblock,55
707,,523,20,:*,Graduated High School,1563127617268,73,male,German,NA,not at all,very,realartsyimages/093.jpg,NA,<br /><br /><br /><br />Rate this picture,4,false,Sun Jul 14 2019 20:01:04 GMT+0200 (Mitteleuropäische Sommerzeit),1563127264568,5.878333333333333,NA,secondblock,56
707,,518,20,:*,Graduated High School,1563127617268,73,male,German,NA,not at all,very,realartsyimages/082.jpg,NA,<br /><br /><br /><br />Rate this picture,4,false,Sun Jul 14 2019 20:01:04 GMT+0200 (Mitteleuropäische Sommerzeit),1563127264568,5.878333333333333,NA,secondblock,57
707,,497,20,:*,Graduated High School,1563127617268,73,male,German,NA,not at all,very,realartsyimages/041.jpg,NA,<br /><br /><br /><br />Rate this picture,4,false,Sun Jul 14 2019 20:01:04 GMT+0200 (Mitteleuropäische Sommerzeit),1563127264568,5.878333333333333,NA,secondblock,58
707,,637,20,:*,Graduated High School,1563127617268,73,male,German,NA,not at all,very,realartsyimages/106.jpg,NA,<br /><br /><br /><br />Rate this picture,4,false,Sun Jul 14 2019 20:01:04 GMT+0200 (Mitteleuropäische Sommerzeit),1563127264568,5.878333333333333,NA,secondblock,59
707,,540,20,:*,Graduated High School,1563127617268,73,male,German,NA,not at all,very,realartsyimages/081.jpg,NA,<br /><br /><br /><br />Rate this picture,4,false,Sun Jul 14 2019 20:01:04 GMT+0200 (Mitteleuropäische Sommerzeit),1563127264568,5.878333333333333,NA,secondblock,60
710,,12043,22,,Graduated High School,1563129263462,73,male,Arabic and German ,0,NA,NA,Ishihara/29.jpg,NA,Can you see a number ?,29,NA,Sun Jul 14 2019 20:13:25 GMT+0200 (CEST),1563128005111,20.972516666666667,NA,ishihara,1
710,,6488,22,,Graduated High School,1563129263462,73,male,Arabic and German ,0,NA,NA,Ishihara/8.jpg,NA,Can you see a number ?,8,NA,Sun Jul 14 2019 20:13:25 GMT+0200 (CEST),1563128005111,20.972516666666667,NA,ishihara,2
710,,9767,22,,Graduated High School,1563129263462,73,male,Arabic and German ,0,NA,NA,Ishihara/18.jpg,NA,Can you see a number ?,18,NA,Sun Jul 14 2019 20:13:25 GMT+0200 (CEST),1563128005111,20.972516666666667,NA,ishihara,3
710,,6355,22,,Graduated High School,1563129263462,73,male,Arabic and German ,0,NA,NA,Ishihara/6.jpg,absolute,Can you see a number ?,6,NA,Sun Jul 14 2019 20:13:25 GMT+0200 (CEST),1563128005111,20.972516666666667,20,ishihara,4
710,,57564,22,,Graduated High School,1563129263462,73,male,Arabic and German ,NA,not at all,very,realartsyimages/079.jpg,NA,<br /><br /><br /><br />Rate this picture,5,false,Sun Jul 14 2019 20:13:25 GMT+0200 (CEST),1563128005111,20.972516666666667,NA,firstblock,1
710,,16579,22,,Graduated High School,1563129263462,73,male,Arabic and German ,NA,not at all,very,realartsyimages/080.jpg,NA,<br /><br /><br /><br />Rate this picture,7,false,Sun Jul 14 2019 20:13:25 GMT+0200 (CEST),1563128005111,20.972516666666667,NA,firstblock,2
710,,18804,22,,Graduated High School,1563129263462,73,male,Arabic and German ,NA,not at all,very,realartsyimages/015.jpg,NA,<br /><br /><br /><br />Rate this picture,2,false,Sun Jul 14 2019 20:13:25 GMT+0200 (CEST),1563128005111,20.972516666666667,NA,firstblock,3
710,,11805,22,,Graduated High School,1563129263462,73,male,Arabic and German ,NA,not at all,very,realartsyimages/049.jpg,NA,<br /><br /><br /><br />Rate this picture,2,false,Sun Jul 14 2019 20:13:25 GMT+0200 (CEST),1563128005111,20.972516666666667,NA,firstblock,4
710,,7140,22,,Graduated High School,1563129263462,73,male,Arabic and German ,NA,not at all,very,realartsyimages/039.jpg,NA,<br /><br /><br /><br />Rate this picture,1,false,Sun Jul 14 2019 20:13:25 GMT+0200 (CEST),1563128005111,20.972516666666667,NA,firstblock,5
710,,9201,22,,Graduated High School,1563129263462,73,male,Arabic and German ,NA,not at all,very,realartsyimages/040.jpg,NA,<br /><br /><br /><br />Rate this picture,3,false,Sun Jul 14 2019 20:13:25 GMT+0200 (CEST),1563128005111,20.972516666666667,NA,firstblock,6
710,,7216,22,,Graduated High School,1563129263462,73,male,Arabic and German ,NA,not at all,very,realartsyimages/093.jpg,NA,<br /><br /><br /><br />Rate this picture,3,false,Sun Jul 14 2019 20:13:25 GMT+0200 (CEST),1563128005111,20.972516666666667,NA,firstblock,7
710,,6750,22,,Graduated High School,1563129263462,73,male,Arabic and German ,NA,not at all,very,realartsyimages/037.jpg,NA,<br /><br /><br /><br />Rate this picture,3,false,Sun Jul 14 2019 20:13:25 GMT+0200 (CEST),1563128005111,20.972516666666667,NA,firstblock,8
710,,3001,22,,Graduated High School,1563129263462,73,male,Arabic and German ,NA,not at all,very,realartsyimages/001.jpg,NA,<br /><br /><br /><br />Rate this picture,4,false,Sun Jul 14 2019 20:13:25 GMT+0200 (CEST),1563128005111,20.972516666666667,NA,firstblock,9
710,,4866,22,,Graduated High School,1563129263462,73,male,Arabic and German ,NA,not at all,very,realartsyimages/104.jpg,NA,<br /><br /><br /><br />Rate this picture,3,false,Sun Jul 14 2019 20:13:25 GMT+0200 (CEST),1563128005111,20.972516666666667,NA,firstblock,10
710,,3912,22,,Graduated High School,1563129263462,73,male,Arabic and German ,NA,not at all,very,realartsyimages/087.jpg,NA,<br /><br /><br /><br />Rate this picture,5,false,Sun Jul 14 2019 20:13:25 GMT+0200 (CEST),1563128005111,20.972516666666667,NA,firstblock,11
710,,2968,22,,Graduated High School,1563129263462,73,male,Arabic and German ,NA,not at all,very,realartsyimages/041.jpg,NA,<br /><br /><br /><br />Rate this picture,4,false,Sun Jul 14 2019 20:13:25 GMT+0200 (CEST),1563128005111,20.972516666666667,NA,firstblock,12
710,,2900,22,,Graduated High School,1563129263462,73,male,Arabic and German ,NA,not at all,very,realartsyimages/044.jpg,NA,<br /><br /><br /><br />Rate this picture,1,false,Sun Jul 14 2019 20:13:25 GMT+0200 (CEST),1563128005111,20.972516666666667,NA,firstblock,13
710,,3768,22,,Graduated High School,1563129263462,73,male,Arabic and German ,NA,not at all,very,realartsyimages/002.jpg,NA,<br /><br /><br /><br />Rate this picture,5,false,Sun Jul 14 2019 20:13:25 GMT+0200 (CEST),1563128005111,20.972516666666667,NA,firstblock,14
710,,2748,22,,Graduated High School,1563129263462,73,male,Arabic and German ,NA,not at all,very,realartsyimages/076.jpg,NA,<br /><br /><br /><br />Rate this picture,6,false,Sun Jul 14 2019 20:13:25 GMT+0200 (CEST),1563128005111,20.972516666666667,NA,firstblock,15
710,,1644,22,,Graduated High School,1563129263462,73,male,Arabic and German ,NA,not at all,very,realartsyimages/047.jpg,NA,<br /><br /><br /><br />Rate this picture,2,false,Sun Jul 14 2019 20:13:25 GMT+0200 (CEST),1563128005111,20.972516666666667,NA,firstblock,16
710,,3850,22,,Graduated High School,1563129263462,73,male,Arabic and German ,NA,not at all,very,realartsyimages/074.jpg,NA,<br /><br /><br /><br />Rate this picture,5,false,Sun Jul 14 2019 20:13:25 GMT+0200 (CEST),1563128005111,20.972516666666667,NA,firstblock,17
710,,166775,22,,Graduated High School,1563129263462,73,male,Arabic and German ,NA,not at all,very,realartsyimages/014.jpg,NA,<br /><br /><br /><br />Rate this picture,4,false,Sun Jul 14 2019 20:13:25 GMT+0200 (CEST),1563128005111,20.972516666666667,NA,firstblock,18
710,,4949,22,,Graduated High School,1563129263462,73,male,Arabic and German ,NA,not at all,very,realartsyimages/105.jpg,NA,<br /><br /><br /><br />Rate this picture,4,false,Sun Jul 14 2019 20:13:25 GMT+0200 (CEST),1563128005111,20.972516666666667,NA,firstblock,19
710,,8182,22,,Graduated High School,1563129263462,73,male,Arabic and German ,NA,not at all,very,realartsyimages/084.jpg,NA,<br /><br /><br /><br />Rate this picture,4,false,Sun Jul 14 2019 20:13:25 GMT+0200 (CEST),1563128005111,20.972516666666667,NA,firstblock,20
710,,2584,22,,Graduated High School,1563129263462,73,male,Arabic and German ,NA,not at all,very,realartsyimages/038.jpg,NA,<br /><br /><br /><br />Rate this picture,3,false,Sun Jul 14 2019 20:13:25 GMT+0200 (CEST),1563128005111,20.972516666666667,NA,firstblock,21
710,,2981,22,,Graduated High School,1563129263462,73,male,Arabic and German ,NA,not at all,very,realartsyimages/083.jpg,NA,<br /><br /><br /><br />Rate this picture,4,false,Sun Jul 14 2019 20:13:25 GMT+0200 (CEST),1563128005111,20.972516666666667,NA,firstblock,22
710,,5148,22,,Graduated High School,1563129263462,73,male,Arabic and German ,NA,not at all,very,realartsyimages/009.jpg,NA,<br /><br /><br /><br />Rate this picture,5,false,Sun Jul 14 2019 20:13:25 GMT+0200 (CEST),1563128005111,20.972516666666667,NA,firstblock,23
710,,3828,22,,Graduated High School,1563129263462,73,male,Arabic and German ,NA,not at all,very,realartsyimages/102.jpg,NA,<br /><br /><br /><br />Rate this picture,6,false,Sun Jul 14 2019 20:13:25 GMT+0200 (CEST),1563128005111,20.972516666666667,NA,firstblock,24
710,,4981,22,,Graduated High School,1563129263462,73,male,Arabic and German ,NA,not at all,very,realartsyimages/072.jpg,NA,<br /><br /><br /><br />Rate this picture,5,false,Sun Jul 14 2019 20:13:25 GMT+0200 (CEST),1563128005111,20.972516666666667,NA,firstblock,25
710,,8570,22,,Graduated High School,1563129263462,73,male,Arabic and German ,NA,not at all,very,realartsyimages/012.jpg,NA,<br /><br /><br /><br />Rate this picture,7,false,Sun Jul 14 2019 20:13:25 GMT+0200 (CEST),1563128005111,20.972516666666667,NA,firstblock,26
710,,2549,22,,Graduated High School,1563129263462,73,male,Arabic and German ,NA,not at all,very,realartsyimages/010.jpg,NA,<br /><br /><br /><br />Rate this picture,5,false,Sun Jul 14 2019 20:13:25 GMT+0200 (CEST),1563128005111,20.972516666666667,NA,firstblock,27
710,,4851,22,,Graduated High School,1563129263462,73,male,Arabic and German ,NA,not at all,very,realartsyimages/097.jpg,NA,<br /><br /><br /><br />Rate this picture,4,false,Sun Jul 14 2019 20:13:25 GMT+0200 (CEST),1563128005111,20.972516666666667,NA,firstblock,28
710,,56073,22,,Graduated High School,1563129263462,73,male,Arabic and German ,NA,not at all,very,realartsyimages/078.jpg,NA,<br /><br /><br /><br />Rate this picture,6,false,Sun Jul 14 2019 20:13:25 GMT+0200 (CEST),1563128005111,20.972516666666667,NA,firstblock,29
710,,18264,22,,Graduated High School,1563129263462,73,male,Arabic and German ,NA,not at all,very,realartsyimages/042.jpg,NA,<br /><br /><br /><br />Rate this picture,2,false,Sun Jul 14 2019 20:13:25 GMT+0200 (CEST),1563128005111,20.972516666666667,NA,firstblock,30
710,,4017,22,,Graduated High School,1563129263462,73,male,Arabic and German ,NA,not at all,very,realartsyimages/004.jpg,NA,<br /><br /><br /><br />Rate this picture,3,false,Sun Jul 14 2019 20:13:25 GMT+0200 (CEST),1563128005111,20.972516666666667,NA,firstblock,31
710,,10120,22,,Graduated High School,1563129263462,73,male,Arabic and German ,NA,not at all,very,realartsyimages/073.jpg,NA,<br /><br /><br /><br />Rate this picture,5,false,Sun Jul 14 2019 20:13:25 GMT+0200 (CEST),1563128005111,20.972516666666667,NA,firstblock,32
710,,15822,22,,Graduated High School,1563129263462,73,male,Arabic and German ,NA,not at all,very,realartsyimages/043.jpg,NA,<br /><br /><br /><br />Rate this picture,4,false,Sun Jul 14 2019 20:13:25 GMT+0200 (CEST),1563128005111,20.972516666666667,NA,firstblock,33
710,,3882,22,,Graduated High School,1563129263462,73,male,Arabic and German ,NA,not at all,very,realartsyimages/006.jpg,NA,<br /><br /><br /><br />Rate this picture,5,false,Sun Jul 14 2019 20:13:25 GMT+0200 (CEST),1563128005111,20.972516666666667,NA,firstblock,34
710,,8952,22,,Graduated High School,1563129263462,73,male,Arabic and German ,NA,not at all,very,realartsyimages/081.jpg,NA,<br /><br /><br /><br />Rate this picture,5,false,Sun Jul 14 2019 20:13:25 GMT+0200 (CEST),1563128005111,20.972516666666667,NA,firstblock,35
710,,2134,22,,Graduated High School,1563129263462,73,male,Arabic and German ,NA,not at all,very,realartsyimages/036.jpg,NA,<br /><br /><br /><br />Rate this picture,3,false,Sun Jul 14 2019 20:13:25 GMT+0200 (CEST),1563128005111,20.972516666666667,NA,firstblock,36
710,,3667,22,,Graduated High School,1563129263462,73,male,Arabic and German ,NA,not at all,very,realartsyimages/013.jpg,NA,<br /><br /><br /><br />Rate this picture,7,false,Sun Jul 14 2019 20:13:25 GMT+0200 (CEST),1563128005111,20.972516666666667,NA,firstblock,37
710,,1616,22,,Graduated High School,1563129263462,73,male,Arabic and German ,NA,not at all,very,realartsyimages/005.jpg,NA,<br /><br /><br /><br />Rate this picture,5,false,Sun Jul 14 2019 20:13:25 GMT+0200 (CEST),1563128005111,20.972516666666667,NA,firstblock,38
710,,2282,22,,Graduated High School,1563129263462,73,male,Arabic and German ,NA,not at all,very,realartsyimages/082.jpg,NA,<br /><br /><br /><br />Rate this picture,5,false,Sun Jul 14 2019 20:13:25 GMT+0200 (CEST),1563128005111,20.972516666666667,NA,firstblock,39
710,,2049,22,,Graduated High School,1563129263462,73,male,Arabic and German ,NA,not at all,very,realartsyimages/050.jpg,NA,<br /><br /><br /><br />Rate this picture,3,false,Sun Jul 14 2019 20:13:25 GMT+0200 (CEST),1563128005111,20.972516666666667,NA,firstblock,40
710,,1882,22,,Graduated High School,1563129263462,73,male,Arabic and German ,NA,not at all,very,realartsyimages/011.jpg,NA,<br /><br /><br /><br />Rate this picture,4,false,Sun Jul 14 2019 20:13:25 GMT+0200 (CEST),1563128005111,20.972516666666667,NA,firstblock,41
710,,5631,22,,Graduated High School,1563129263462,73,male,Arabic and German ,NA,not at all,very,realartsyimages/103.jpg,NA,<br /><br /><br /><br />Rate this picture,4,false,Sun Jul 14 2019 20:13:25 GMT+0200 (CEST),1563128005111,20.972516666666667,NA,firstblock,42
710,,3334,22,,Graduated High School,1563129263462,73,male,Arabic and German ,NA,not at all,very,realartsyimages/045.jpg,NA,<br /><br /><br /><br />Rate this picture,2,false,Sun Jul 14 2019 20:13:25 GMT+0200 (CEST),1563128005111,20.972516666666667,NA,firstblock,43
710,,5554,22,,Graduated High School,1563129263462,73,male,Arabic and German ,NA,not at all,very,realartsyimages/092.jpg,NA,<br /><br /><br /><br />Rate this picture,4,false,Sun Jul 14 2019 20:13:25 GMT+0200 (CEST),1563128005111,20.972516666666667,NA,firstblock,44
710,,3082,22,,Graduated High School,1563129263462,73,male,Arabic and German ,NA,not at all,very,realartsyimages/003.jpg,NA,<br /><br /><br /><br />Rate this picture,6,false,Sun Jul 14 2019 20:13:25 GMT+0200 (CEST),1563128005111,20.972516666666667,NA,firstblock,45
710,,2982,22,,Graduated High School,1563129263462,73,male,Arabic and German ,NA,not at all,very,realartsyimages/048.jpg,NA,<br /><br /><br /><br />Rate this picture,2,false,Sun Jul 14 2019 20:13:25 GMT+0200 (CEST),1563128005111,20.972516666666667,NA,firstblock,46
710,,3266,22,,Graduated High School,1563129263462,73,male,Arabic and German ,NA,not at all,very,realartsyimages/106.jpg,NA,<br /><br /><br /><br />Rate this picture,3,false,Sun Jul 14 2019 20:13:25 GMT+0200 (CEST),1563128005111,20.972516666666667,NA,firstblock,47
710,,3065,22,,Graduated High School,1563129263462,73,male,Arabic and German ,NA,not at all,very,realartsyimages/094.jpg,NA,<br /><br /><br /><br />Rate this picture,2,false,Sun Jul 14 2019 20:13:25 GMT+0200 (CEST),1563128005111,20.972516666666667,NA,firstblock,48
710,,3063,22,,Graduated High School,1563129263462,73,male,Arabic and German ,NA,not at all,very,realartsyimages/075.jpg,NA,<br /><br /><br /><br />Rate this picture,5,false,Sun Jul 14 2019 20:13:25 GMT+0200 (CEST),1563128005111,20.972516666666667,NA,firstblock,49
710,,2950,22,,Graduated High School,1563129263462,73,male,Arabic and German ,NA,not at all,very,realartsyimages/101.jpg,NA,<br /><br /><br /><br />Rate this picture,2,false,Sun Jul 14 2019 20:13:25 GMT+0200 (CEST),1563128005111,20.972516666666667,NA,firstblock,50
710,,2669,22,,Graduated High School,1563129263462,73,male,Arabic and German ,NA,not at all,very,realartsyimages/099.jpg,NA,<br /><br /><br /><br />Rate this picture,3,false,Sun Jul 14 2019 20:13:25 GMT+0200 (CEST),1563128005111,20.972516666666667,NA,firstblock,51
710,,3292,22,,Graduated High School,1563129263462,73,male,Arabic and German ,NA,not at all,very,realartsyimages/098.jpg,NA,<br /><br /><br /><br />Rate this picture,4,false,Sun Jul 14 2019 20:13:25 GMT+0200 (CEST),1563128005111,20.972516666666667,NA,firstblock,52
710,,2315,22,,Graduated High School,1563129263462,73,male,Arabic and German ,NA,not at all,very,realartsyimages/007.jpg,NA,<br /><br /><br /><br />Rate this picture,3,false,Sun Jul 14 2019 20:13:25 GMT+0200 (CEST),1563128005111,20.972516666666667,NA,firstblock,53
710,,4682,22,,Graduated High School,1563129263462,73,male,Arabic and German ,NA,not at all,very,realartsyimages/086.jpg,NA,<br /><br /><br /><br />Rate this picture,5,false,Sun Jul 14 2019 20:13:25 GMT+0200 (CEST),1563128005111,20.972516666666667,NA,firstblock,54
710,,39809,22,,Graduated High School,1563129263462,73,male,Arabic and German ,NA,not at all,very,realartsyimages/046.jpg,NA,<br /><br /><br /><br />Rate this picture,3,false,Sun Jul 14 2019 20:13:25 GMT+0200 (CEST),1563128005111,20.972516666666667,NA,firstblock,55
710,,4166,22,,Graduated High School,1563129263462,73,male,Arabic and German ,NA,not at all,very,realartsyimages/077.jpg,NA,<br /><br /><br /><br />Rate this picture,4,false,Sun Jul 14 2019 20:13:25 GMT+0200 (CEST),1563128005111,20.972516666666667,NA,firstblock,56
710,,4986,22,,Graduated High School,1563129263462,73,male,Arabic and German ,NA,not at all,very,realartsyimages/100.jpg,NA,<br /><br /><br /><br />Rate this picture,5,false,Sun Jul 14 2019 20:13:25 GMT+0200 (CEST),1563128005111,20.972516666666667,NA,firstblock,57
710,,3549,22,,Graduated High School,1563129263462,73,male,Arabic and German ,NA,not at all,very,realartsyimages/095.jpg,NA,<br /><br /><br /><br />Rate this picture,3,false,Sun Jul 14 2019 20:13:25 GMT+0200 (CEST),1563128005111,20.972516666666667,NA,firstblock,58
710,,3549,22,,Graduated High School,1563129263462,73,male,Arabic and German ,NA,not at all,very,realartsyimages/085.jpg,NA,<br /><br /><br /><br />Rate this picture,3,false,Sun Jul 14 2019 20:13:25 GMT+0200 (CEST),1563128005111,20.972516666666667,NA,firstblock,59
710,,2182,22,,Graduated High School,1563129263462,73,male,Arabic and German ,NA,not at all,very,realartsyimages/008.jpg,NA,<br /><br /><br /><br />Rate this picture,2,false,Sun Jul 14 2019 20:13:25 GMT+0200 (CEST),1563128005111,20.972516666666667,NA,firstblock,60
710,,88199,22,,Graduated High School,1563129263462,73,male,Arabic and German ,NA,not at all,very,realartsyimages/083.jpg,NA,<br /><br /><br /><br />Rate this picture,5,false,Sun Jul 14 2019 20:13:25 GMT+0200 (CEST),1563128005111,20.972516666666667,NA,secondblock,1
710,,2513,22,,Graduated High School,1563129263462,73,male,Arabic and German ,NA,not at all,very,realartsyimages/039.jpg,NA,<br /><br /><br /><br />Rate this picture,2,false,Sun Jul 14 2019 20:13:25 GMT+0200 (CEST),1563128005111,20.972516666666667,NA,secondblock,2
710,,11118,22,,Graduated High School,1563129263462,73,male,Arabic and German ,NA,not at all,very,realartsyimages/001.jpg,NA,<br /><br /><br /><br />Rate this picture,4,false,Sun Jul 14 2019 20:13:25 GMT+0200 (CEST),1563128005111,20.972516666666667,NA,secondblock,3
710,,3311,22,,Graduated High School,1563129263462,73,male,Arabic and German ,NA,not at all,very,realartsyimages/097.jpg,NA,<br /><br /><br /><br />Rate this picture,3,false,Sun Jul 14 2019 20:13:25 GMT+0200 (CEST),1563128005111,20.972516666666667,NA,secondblock,4
710,,2738,22,,Graduated High School,1563129263462,73,male,Arabic and German ,NA,not at all,very,realartsyimages/045.jpg,NA,<br /><br /><br /><br />Rate this picture,2,false,Sun Jul 14 2019 20:13:25 GMT+0200 (CEST),1563128005111,20.972516666666667,NA,secondblock,5
710,,6766,22,,Graduated High School,1563129263462,73,male,Arabic and German ,NA,not at all,very,realartsyimages/050.jpg,NA,<br /><br /><br /><br />Rate this picture,1,false,Sun Jul 14 2019 20:13:25 GMT+0200 (CEST),1563128005111,20.972516666666667,NA,secondblock,6
710,,2283,22,,Graduated High School,1563129263462,73,male,Arabic and German ,NA,not at all,very,realartsyimages/074.jpg,NA,<br /><br /><br /><br />Rate this picture,4,false,Sun Jul 14 2019 20:13:25 GMT+0200 (CEST),1563128005111,20.972516666666667,NA,secondblock,7
710,,40481,22,,Graduated High School,1563129263462,73,male,Arabic and German ,NA,not at all,very,realartsyimages/086.jpg,NA,<br /><br /><br /><br />Rate this picture,5,false,Sun Jul 14 2019 20:13:25 GMT+0200 (CEST),1563128005111,20.972516666666667,NA,secondblock,8
710,,8687,22,,Graduated High School,1563129263462,73,male,Arabic and German ,NA,not at all,very,realartsyimages/010.jpg,NA,<br /><br /><br /><br />Rate this picture,1,false,Sun Jul 14 2019 20:13:25 GMT+0200 (CEST),1563128005111,20.972516666666667,NA,secondblock,9
710,,3686,22,,Graduated High School,1563129263462,73,male,Arabic and German ,NA,not at all,very,realartsyimages/080.jpg,NA,<br /><br /><br /><br />Rate this picture,5,false,Sun Jul 14 2019 20:13:25 GMT+0200 (CEST),1563128005111,20.972516666666667,NA,secondblock,10
710,,2363,22,,Graduated High School,1563129263462,73,male,Arabic and German ,NA,not at all,very,realartsyimages/037.jpg,NA,<br /><br /><br /><br />Rate this picture,1,false,Sun Jul 14 2019 20:13:25 GMT+0200 (CEST),1563128005111,20.972516666666667,NA,secondblock,11
710,,3050,22,,Graduated High School,1563129263462,73,male,Arabic and German ,NA,not at all,very,realartsyimages/078.jpg,NA,<br /><br /><br /><br />Rate this picture,6,false,Sun Jul 14 2019 20:13:25 GMT+0200 (CEST),1563128005111,20.972516666666667,NA,secondblock,12
710,,3731,22,,Graduated High School,1563129263462,73,male,Arabic and German ,NA,not at all,very,realartsyimages/101.jpg,NA,<br /><br /><br /><br />Rate this picture,4,false,Sun Jul 14 2019 20:13:25 GMT+0200 (CEST),1563128005111,20.972516666666667,NA,secondblock,13
710,,11752,22,,Graduated High School,1563129263462,73,male,Arabic and German ,NA,not at all,very,realartsyimages/011.jpg,NA,<br /><br /><br /><br />Rate this picture,1,false,Sun Jul 14 2019 20:13:25 GMT+0200 (CEST),1563128005111,20.972516666666667,NA,secondblock,14
710,,38545,22,,Graduated High School,1563129263462,73,male,Arabic and German ,NA,not at all,very,realartsyimages/042.jpg,NA,<br /><br /><br /><br />Rate this picture,1,false,Sun Jul 14 2019 20:13:25 GMT+0200 (CEST),1563128005111,20.972516666666667,NA,secondblock,15
710,,6900,22,,Graduated High School,1563129263462,73,male,Arabic and German ,NA,not at all,very,realartsyimages/006.jpg,NA,<br /><br /><br /><br />Rate this picture,1,false,Sun Jul 14 2019 20:13:25 GMT+0200 (CEST),1563128005111,20.972516666666667,NA,secondblock,16
710,,4365,22,,Graduated High School,1563129263462,73,male,Arabic and German ,NA,not at all,very,realartsyimages/004.jpg,NA,<br /><br /><br /><br />Rate this picture,1,false,Sun Jul 14 2019 20:13:25 GMT+0200 (CEST),1563128005111,20.972516666666667,NA,secondblock,17
710,,3935,22,,Graduated High School,1563129263462,73,male,Arabic and German ,NA,not at all,very,realartsyimages/003.jpg,NA,<br /><br /><br /><br />Rate this picture,2,false,Sun Jul 14 2019 20:13:25 GMT+0200 (CEST),1563128005111,20.972516666666667,NA,secondblock,18
710,,2999,22,,Graduated High School,1563129263462,73,male,Arabic and German ,NA,not at all,very,realartsyimages/077.jpg,NA,<br /><br /><br /><br />Rate this picture,4,false,Sun Jul 14 2019 20:13:25 GMT+0200 (CEST),1563128005111,20.972516666666667,NA,secondblock,19
710,,3531,22,,Graduated High School,1563129263462,73,male,Arabic and German ,NA,not at all,very,realartsyimages/007.jpg,NA,<br /><br /><br /><br />Rate this picture,2,false,Sun Jul 14 2019 20:13:25 GMT+0200 (CEST),1563128005111,20.972516666666667,NA,secondblock,20
710,,2882,22,,Graduated High School,1563129263462,73,male,Arabic and German ,NA,not at all,very,realartsyimages/047.jpg,NA,<br /><br /><br /><br />Rate this picture,1,false,Sun Jul 14 2019 20:13:25 GMT+0200 (CEST),1563128005111,20.972516666666667,NA,secondblock,21
710,,2347,22,,Graduated High School,1563129263462,73,male,Arabic and German ,NA,not at all,very,realartsyimages/075.jpg,NA,<br /><br /><br /><br />Rate this picture,5,false,Sun Jul 14 2019 20:13:25 GMT+0200 (CEST),1563128005111,20.972516666666667,NA,secondblock,22
710,,3271,22,,Graduated High School,1563129263462,73,male,Arabic and German ,NA,not at all,very,realartsyimages/048.jpg,NA,<br /><br /><br /><br />Rate this picture,2,false,Sun Jul 14 2019 20:13:25 GMT+0200 (CEST),1563128005111,20.972516666666667,NA,secondblock,23
710,,2493,22,,Graduated High School,1563129263462,73,male,Arabic and German ,NA,not at all,very,realartsyimages/093.jpg,NA,<br /><br /><br /><br />Rate this picture,3,false,Sun Jul 14 2019 20:13:25 GMT+0200 (CEST),1563128005111,20.972516666666667,NA,secondblock,24
710,,2916,22,,Graduated High School,1563129263462,73,male,Arabic and German ,NA,not at all,very,realartsyimages/087.jpg,NA,<br /><br /><br /><br />Rate this picture,5,false,Sun Jul 14 2019 20:13:25 GMT+0200 (CEST),1563128005111,20.972516666666667,NA,secondblock,25
710,,2946,22,,Graduated High School,1563129263462,73,male,Arabic and German ,NA,not at all,very,realartsyimages/104.jpg,NA,<br /><br /><br /><br />Rate this picture,3,false,Sun Jul 14 2019 20:13:25 GMT+0200 (CEST),1563128005111,20.972516666666667,NA,secondblock,26
710,,11844,22,,Graduated High School,1563129263462,73,male,Arabic and German ,NA,not at all,very,realartsyimages/012.jpg,NA,<br /><br /><br /><br />Rate this picture,2,false,Sun Jul 14 2019 20:13:25 GMT+0200 (CEST),1563128005111,20.972516666666667,NA,secondblock,27
710,,2746,22,,Graduated High School,1563129263462,73,male,Arabic and German ,NA,not at all,very,realartsyimages/015.jpg,NA,<br /><br /><br /><br />Rate this picture,2,false,Sun Jul 14 2019 20:13:25 GMT+0200 (CEST),1563128005111,20.972516666666667,NA,secondblock,28
710,,4007,22,,Graduated High School,1563129263462,73,male,Arabic and German ,NA,not at all,very,realartsyimages/085.jpg,NA,<br /><br /><br /><br />Rate this picture,4,false,Sun Jul 14 2019 20:13:25 GMT+0200 (CEST),1563128005111,20.972516666666667,NA,secondblock,29
710,,4482,22,,Graduated High School,1563129263462,73,male,Arabic and German ,NA,not at all,very,realartsyimages/096.jpg,NA,<br /><br /><br /><br />Rate this picture,2,false,Sun Jul 14 2019 20:13:25 GMT+0200 (CEST),1563128005111,20.972516666666667,NA,secondblock,30
710,,2682,22,,Graduated High School,1563129263462,73,male,Arabic and German ,NA,not at all,very,realartsyimages/084.jpg,NA,<br /><br /><br /><br />Rate this picture,3,false,Sun Jul 14 2019 20:13:25 GMT+0200 (CEST),1563128005111,20.972516666666667,NA,secondblock,31
710,,15025,22,,Graduated High School,1563129263462,73,male,Arabic and German ,NA,not at all,very,realartsyimages/041.jpg,NA,<br /><br /><br /><br />Rate this picture,6,false,Sun Jul 14 2019 20:13:25 GMT+0200 (CEST),1563128005111,20.972516666666667,NA,secondblock,32
710,,17706,22,,Graduated High School,1563129263462,73,male,Arabic and German ,NA,not at all,very,realartsyimages/046.jpg,NA,<br /><br /><br /><br />Rate this picture,2,false,Sun Jul 14 2019 20:13:25 GMT+0200 (CEST),1563128005111,20.972516666666667,NA,secondblock,33
710,,12737,22,,Graduated High School,1563129263462,73,male,Arabic and German ,NA,not at all,very,realartsyimages/002.jpg,NA,<br /><br /><br /><br />Rate this picture,1,false,Sun Jul 14 2019 20:13:25 GMT+0200 (CEST),1563128005111,20.972516666666667,NA,secondblock,34
710,,19523,22,,Graduated High School,1563129263462,73,male,Arabic and German ,NA,not at all,very,realartsyimages/099.jpg,NA,<br /><br /><br /><br />Rate this picture,5,false,Sun Jul 14 2019 20:13:25 GMT+0200 (CEST),1563128005111,20.972516666666667,NA,secondblock,35
710,,7436,22,,Graduated High School,1563129263462,73,male,Arabic and German ,NA,not at all,very,realartsyimages/076.jpg,NA,<br /><br /><br /><br />Rate this picture,4,false,Sun Jul 14 2019 20:13:25 GMT+0200 (CEST),1563128005111,20.972516666666667,NA,secondblock,36
710,,2583,22,,Graduated High School,1563129263462,73,male,Arabic and German ,NA,not at all,very,realartsyimages/094.jpg,NA,<br /><br /><br /><br />Rate this picture,2,false,Sun Jul 14 2019 20:13:25 GMT+0200 (CEST),1563128005111,20.972516666666667,NA,secondblock,37
710,,2649,22,,Graduated High School,1563129263462,73,male,Arabic and German ,NA,not at all,very,realartsyimages/014.jpg,NA,<br /><br /><br /><br />Rate this picture,3,false,Sun Jul 14 2019 20:13:25 GMT+0200 (CEST),1563128005111,20.972516666666667,NA,secondblock,38
710,,1965,22,,Graduated High School,1563129263462,73,male,Arabic and German ,NA,not at all,very,realartsyimages/036.jpg,NA,<br /><br /><br /><br />Rate this picture,2,false,Sun Jul 14 2019 20:13:25 GMT+0200 (CEST),1563128005111,20.972516666666667,NA,secondblock,39
710,,2214,22,,Graduated High School,1563129263462,73,male,Arabic and German ,NA,not at all,very,realartsyimages/106.jpg,NA,<br /><br /><br /><br />Rate this picture,5,false,Sun Jul 14 2019 20:13:25 GMT+0200 (CEST),1563128005111,20.972516666666667,NA,secondblock,40
710,,1369,22,,Graduated High School,1563129263462,73,male,Arabic and German ,NA,not at all,very,realartsyimages/038.jpg,NA,<br /><br /><br /><br />Rate this picture,1,false,Sun Jul 14 2019 20:13:25 GMT+0200 (CEST),1563128005111,20.972516666666667,NA,secondblock,41
710,,1664,22,,Graduated High School,1563129263462,73,male,Arabic and German ,NA,not at all,very,realartsyimages/098.jpg,NA,<br /><br /><br /><br />Rate this picture,3,false,Sun Jul 14 2019 20:13:25 GMT+0200 (CEST),1563128005111,20.972516666666667,NA,secondblock,42
710,,2465,22,,Graduated High School,1563129263462,73,male,Arabic and German ,NA,not at all,very,realartsyimages/100.jpg,NA,<br /><br /><br /><br />Rate this picture,7,false,Sun Jul 14 2019 20:13:25 GMT+0200 (CEST),1563128005111,20.972516666666667,NA,secondblock,43
710,,2366,22,,Graduated High School,1563129263462,73,male,Arabic and German ,NA,not at all,very,realartsyimages/005.jpg,NA,<br /><br /><br /><br />Rate this picture,2,false,Sun Jul 14 2019 20:13:25 GMT+0200 (CEST),1563128005111,20.972516666666667,NA,secondblock,44
710,,2750,22,,Graduated High School,1563129263462,73,male,Arabic and German ,NA,not at all,very,realartsyimages/079.jpg,NA,<br /><br /><br /><br />Rate this picture,3,false,Sun Jul 14 2019 20:13:25 GMT+0200 (CEST),1563128005111,20.972516666666667,NA,secondblock,45
710,,1798,22,,Graduated High School,1563129263462,73,male,Arabic and German ,NA,not at all,very,realartsyimages/049.jpg,NA,<br /><br /><br /><br />Rate this picture,1,false,Sun Jul 14 2019 20:13:25 GMT+0200 (CEST),1563128005111,20.972516666666667,NA,secondblock,46
710,,1899,22,,Graduated High School,1563129263462,73,male,Arabic and German ,NA,not at all,very,realartsyimages/092.jpg,NA,<br /><br /><br /><br />Rate this picture,3,false,Sun Jul 14 2019 20:13:25 GMT+0200 (CEST),1563128005111,20.972516666666667,NA,secondblock,47
710,,2034,22,,Graduated High School,1563129263462,73,male,Arabic and German ,NA,not at all,very,realartsyimages/040.jpg,NA,<br /><br /><br /><br />Rate this picture,2,false,Sun Jul 14 2019 20:13:25 GMT+0200 (CEST),1563128005111,20.972516666666667,NA,secondblock,48
710,,2065,22,,Graduated High School,1563129263462,73,male,Arabic and German ,NA,not at all,very,realartsyimages/013.jpg,NA,<br /><br /><br /><br />Rate this picture,3,false,Sun Jul 14 2019 20:13:25 GMT+0200 (CEST),1563128005111,20.972516666666667,NA,secondblock,49
710,,4516,22,,Graduated High School,1563129263462,73,male,Arabic and German ,NA,not at all,very,realartsyimages/102.jpg,NA,<br /><br /><br /><br />Rate this picture,4,false,Sun Jul 14 2019 20:13:25 GMT+0200 (CEST),1563128005111,20.972516666666667,NA,secondblock,50
710,,5601,22,,Graduated High School,1563129263462,73,male,Arabic and German ,NA,not at all,very,realartsyimages/073.jpg,NA,<br /><br /><br /><br />Rate this picture,3,false,Sun Jul 14 2019 20:13:25 GMT+0200 (CEST),1563128005111,20.972516666666667,NA,secondblock,51
710,,3682,22,,Graduated High School,1563129263462,73,male,Arabic and German ,NA,not at all,very,realartsyimages/081.jpg,NA,<br /><br /><br /><br />Rate this picture,4,false,Sun Jul 14 2019 20:13:25 GMT+0200 (CEST),1563128005111,20.972516666666667,NA,secondblock,52
710,,1899,22,,Graduated High School,1563129263462,73,male,Arabic and German ,NA,not at all,very,realartsyimages/009.jpg,NA,<br /><br /><br /><br />Rate this picture,2,false,Sun Jul 14 2019 20:13:25 GMT+0200 (CEST),1563128005111,20.972516666666667,NA,secondblock,53
710,,4365,22,,Graduated High School,1563129263462,73,male,Arabic and German ,NA,not at all,very,realartsyimages/095.jpg,NA,<br /><br /><br /><br />Rate this picture,2,false,Sun Jul 14 2019 20:13:25 GMT+0200 (CEST),1563128005111,20.972516666666667,NA,secondblock,54
710,,2133,22,,Graduated High School,1563129263462,73,male,Arabic and German ,NA,not at all,very,realartsyimages/072.jpg,NA,<br /><br /><br /><br />Rate this picture,5,false,Sun Jul 14 2019 20:13:25 GMT+0200 (CEST),1563128005111,20.972516666666667,NA,secondblock,55
710,,1816,22,,Graduated High School,1563129263462,73,male,Arabic and German ,NA,not at all,very,realartsyimages/008.jpg,NA,<br /><br /><br /><br />Rate this picture,1,false,Sun Jul 14 2019 20:13:25 GMT+0200 (CEST),1563128005111,20.972516666666667,NA,secondblock,56
710,,2495,22,,Graduated High School,1563129263462,73,male,Arabic and German ,NA,not at all,very,realartsyimages/043.jpg,NA,<br /><br /><br /><br />Rate this picture,1,false,Sun Jul 14 2019 20:13:25 GMT+0200 (CEST),1563128005111,20.972516666666667,NA,secondblock,57
710,,9888,22,,Graduated High School,1563129263462,73,male,Arabic and German ,NA,not at all,very,realartsyimages/105.jpg,NA,<br /><br /><br /><br />Rate this picture,5,false,Sun Jul 14 2019 20:13:25 GMT+0200 (CEST),1563128005111,20.972516666666667,NA,secondblock,58
710,,2466,22,,Graduated High School,1563129263462,73,male,Arabic and German ,NA,not at all,very,realartsyimages/044.jpg,NA,<br /><br /><br /><br />Rate this picture,2,false,Sun Jul 14 2019 20:13:25 GMT+0200 (CEST),1563128005111,20.972516666666667,NA,secondblock,59
710,,1781,22,,Graduated High School,1563129263462,73,male,Arabic and German ,NA,not at all,very,realartsyimages/103.jpg,NA,<br /><br /><br /><br />Rate this picture,1,false,Sun Jul 14 2019 20:13:25 GMT+0200 (CEST),1563128005111,20.972516666666667,NA,secondblock,60
716,,8913,18,,Graduated High School,1563133048379,73,female,German,0,NA,NA,Ishihara/29.jpg,NA,Can you see a number ?,29,NA,Sun Jul 14 2019 21:30:49 GMT+0200 (CEST),1563132649810,6.642816666666667,NA,ishihara,1
716,,6198,18,,Graduated High School,1563133048379,73,female,German,0,NA,NA,Ishihara/18.jpg,NA,Can you see a number ?,18,NA,Sun Jul 14 2019 21:30:49 GMT+0200 (CEST),1563132649810,6.642816666666667,NA,ishihara,2
716,,7483,18,,Graduated High School,1563133048379,73,female,German,0,NA,NA,Ishihara/6.jpg,absolute,Can you see a number ?,6,NA,Sun Jul 14 2019 21:30:49 GMT+0200 (CEST),1563132649810,6.642816666666667,20,ishihara,3
716,,5329,18,,Graduated High School,1563133048379,73,female,German,0,NA,NA,Ishihara/8.jpg,NA,Can you see a number ?,8,NA,Sun Jul 14 2019 21:30:49 GMT+0200 (CEST),1563132649810,6.642816666666667,NA,ishihara,4
716,,6934,18,,Graduated High School,1563133048379,73,female,German,NA,not at all,very,realartsyimages/008.jpg,NA,<br /><br /><br /><br />Rate this picture,4,false,Sun Jul 14 2019 21:30:49 GMT+0200 (CEST),1563132649810,6.642816666666667,NA,firstblock,1
